"id","time","accX","accY","accZ","gyroX","gyroY","gyroZ","rot1","rot2","rot3","rot4","rot5","rot6","rot7","rot8","rot9"
"8","151736105652508","0","0","0","0","0","0","0.104711","-0.885647","0.452399","-0.000377644","-0.454935","-0.890524","0.994503","0.0930766","-0.0479711"
"8","151736120911297","9.98822","0.956879","-0.316116","0","0","0","0.104711","-0.885647","0.452399","-0.000377644","-0.454935","-0.890524","0.994503","0.0930766","-0.0479711"
"8","151736130188641","9.98822","0.956879","-0.316116","0","0","0","0.104711","-0.885647","0.452399","-0.000377644","-0.454935","-0.890524","0.994503","0.0930766","-0.0479711"
"8","151736146088299","10.0265","0.937714","-0.335281","0","0","0","0.104594","-0.861313","0.497192","0.00495881","-0.499476","-0.866313","0.994503","0.0930766","-0.0479711"
"8","151736162842449","10.0265","0.937714","-0.354431","0","0","0","0.101681","-0.858652","0.502373","0.0132929","-0.503773","-0.863734","0.994728","0.094503","-0.0398099"
"8","151736179657635","9.98822","0.937714","-0.296951","0","0","0","0.0995777","-0.839308","0.534459","0.0187776","-0.535448","-0.84436","0.994853","0.0941152","-0.0375585"
"8","151736196381268","9.96906","0.918564","-0.277802","0","0","0","0.0997657","-0.866264","0.489524","0.0145293","-0.490657","-0.871231","0.994905","0.0940315","-0.0363645"
"8","151736213226971","9.98822","0.918564","-0.296951","0","0","0","0.0995639","-0.866074","0.4899","0.0147099","-0.491012","-0.871029","0.994922","0.0939294","-0.0361472"
"8","151736230072674","10.0074","0.918564","-0.335281","0","0","0","0.0980324","-0.831953","0.546117","0.0214277","-0.546869","-0.836944","0.994952","0.0937497","-0.035784"
"8","151736246765789","10.0457","0.918564","-0.335281","0","0","0","0.0989463","-0.862746","0.495862","0.0157241","-0.496889","-0.867671","0.994968","0.0936498","-0.0355994"
"8","151736263611492","10.0265","0.937714","-0.316116","0","0","0","0.0984423","-0.850705","0.516343","0.0180809","-0.517249","-0.855644","0.994978","0.0935675","-0.0355376"
"8","151736280304608","10.0074","0.937714","-0.335281","0","0","0","0.0985518","-0.856215","0.507132","0.017064","-0.508084","-0.861138","0.994986","0.0935204","-0.0354622"
"8","151736297150311","10.0074","0.937714","-0.354431","0","0","0","0.0981052","-0.845481","0.524917","0.019205","-0.525754","-0.85042","0.994991","0.0935116","-0.0353418"
"8","151736313996014","10.0457","0.899399","-0.335281","0","0","0","0.0983422","-0.853476","0.51177","0.0177347","-0.512678","-0.858398","0.994995","0.0934928","-0.0352817"
"8","151736330719647","9.98822","0.880249","-0.277802","0","0","0","0.0985092","-0.860615","0.499638","0.0163571","-0.500612","-0.865517","0.995002","0.0934341","-0.0352378"
"8","151736347412762","9.98822","0.880249","-0.258636","0","0","0","0.0982219","-0.860347","0.500156","0.0163794","-0.50112","-0.865223","0.99503","0.0931761","-0.035129"
"8","151736364227948","9.98822","0.918564","-0.277802","0","0","0","0.0960202","-0.821816","0.561603","0.0236788","-0.562164","-0.826687","0.995098","0.0926767","-0.0345195"
"8","151736381073651","9.98822","0.918564","-0.335281","0","0","0","0.0960202","-0.821816","0.561603","0.0236788","-0.562164","-0.826687","0.995098","0.0926767","-0.0345195"
"8","151736397827801","10.0074","0.937714","-0.354431","0","0","0","0.0969478","-0.848703","0.519908","0.018956","-0.5207","-0.853529","0.995109","0.0926032","-0.0343927"
"8","151736414612469","9.98822","0.937714","-0.373596","0","0","0","0.0971516","-0.853832","0.511403","0.0179923","-0.512243","-0.858652","0.995107","0.0926207","-0.0344029"
"8","151736431366619","10.0457","0.918564","-0.392746","0","0","0","0.0963419","-0.829566","0.550035","0.0223266","-0.550665","-0.834427","0.995093","0.0926643","-0.0346896"
"8","151736448212323","10.0457","0.899399","-0.373596","0","0","0","0.0973893","-0.855362","0.508793","0.0174748","-0.509675","-0.860189","0.995093","0.0926643","-0.0346896"
"8","151736464966473","9.98822","0.880249","-0.335281","0","0","0","0.0968785","-0.841681","0.531214","0.0198023","-0.531989","-0.84652","0.995099","0.0925288","-0.0348711"
"8","151736481751141","9.98822","0.918564","-0.335281","0","0","0","0.0962023","-0.827798","0.552716","0.0221379","-0.553375","-0.832638","0.995116","0.0923377","-0.0349102"
"8","151736498566326","10.0074","0.937714","-0.296951","0","0","0","0.0966566","-0.843491","0.528375","0.0192571","-0.529177","-0.848293","0.995131","0.0921681","-0.0349053"
"8","151736515289959","10.0074","0.937714","-0.316116","0","0","0","0.0969443","-0.853043","0.512758","0.0174794","-0.513646","-0.857824","0.995136","0.0921239","-0.0348843"
"8","151736532105145","10.0074","0.899399","-0.335281","0","0","0","0.0967073","-0.84692","0.522852","0.0186774","-0.523678","-0.851712","0.995138","0.0921323","-0.0348252"
"8","151736548950848","10.0074","0.899399","-0.335281","0","0","0","0.0960007","-0.829297","0.5505","0.0219254","-0.551158","-0.834113","0.99514","0.0921453","-0.034729"
"8","151736565704998","10.0074","0.899399","-0.373596","0","0","0","0.0964558","-0.844767","0.52637","0.019124","-0.527165","-0.849548","0.995154","0.0920101","-0.0346928"
"8","151736582398114","10.0265","0.899399","-0.373596","0","0","0","0.0958346","-0.83075","0.548333","0.0215038","-0.549012","-0.835537","0.995165","0.0918647","-0.03475"
"8","151736599274334","10.0074","0.918564","-0.392746","0","0","0","0.0972339","-0.87215","0.479478","0.0135662","-0.480555","-0.87686","0.995169","0.0917652","-0.0348945"
"8","151736616059002","10.0457","0.880249","-0.392746","0","0","0","0.0966088","-0.853941","0.511324","0.0169905","-0.512237","-0.858676","0.995177","0.0916433","-0.0349778"
"8","151736632813153","9.98822","0.918564","-0.354431","0","0","0","0.0965074","-0.849106","0.519331","0.0176523","-0.520224","-0.853847","0.995176","0.09157","-0.0352168"
"8","151736649628338","9.96906","0.899399","-0.335281","0","0","0","0.0959938","-0.834794","0.54213","0.0198369","-0.542932","-0.839542","0.995184","0.0913451","-0.0355584"
"8","151736666351971","9.96906","0.937714","-0.392746","0","0","0","0.0957369","-0.827874","0.552683","0.0209415","-0.553436","-0.832629","0.995186","0.0912873","-0.0356473"
"8","151736683228192","9.98822","0.918564","-0.431061","0","0","0","0.0962874","-0.844171","0.527356","0.0179494","-0.528259","-0.848893","0.995192","0.0912035","-0.0357124"
"8","151736699951824","10.0074","0.880249","-0.392746","0","0","0","0.096227","-0.835898","0.540384","0.0191959","-0.541244","-0.840646","0.995174","0.091266","-0.0360365"
"8","151736716736492","10.0265","0.918564","-0.411911","0","0","0","0.0971013","-0.856632","0.506708","0.0149874","-0.507797","-0.861346","0.995162","0.091232","-0.0364691"
"8","151736733551678","10.0074","0.918564","-0.411911","0","0","0","0.0965833","-0.839049","0.535414","0.0179661","-0.536372","-0.843791","0.995163","0.0911154","-0.0367301"
"8","151736750275311","10.0074","0.918564","-0.354431","0","0","0","0.0976898","-0.874646","0.474818","0.0109067","-0.47613","-0.879307","0.995157","0.0910781","-0.0369736"
"8","151736767090496","9.98822","0.861084","-0.373596","0","0","0","0.0977424","-0.874693","0.47472","0.0107189","-0.476051","-0.879353","0.995154","0.0910385","-0.0371546"
"8","151736783936199","9.98822","0.918564","-0.411911","0","0","0","0.0975992","-0.869574","0.484061","0.0116533","-0.485351","-0.874242","0.995158","0.0909662","-0.0372365"
"8","151736800690350","10.0265","0.899399","-0.411911","0","0","0","0.0977873","-0.883873","0.457391","0.00841294","-0.458843","-0.888478","0.995172","0.0907298","-0.0374331"
"8","151736817413983","10.0265","0.937714","-0.411911","0","0","0","0.0970932","-0.848295","0.520546","0.0151337","-0.521698","-0.852996","0.99516","0.0906979","-0.0378156"
"8","151736834229168","10.0457","0.937714","-0.411911","0","0","0","0.0972401","-0.848437","0.520288","0.0147951","-0.521475","-0.853138","0.995151","0.0906569","-0.0381556"
"8","151736851105389","9.98822","0.918564","-0.392746","0","0","0","0.0974043","-0.848595","0.519998","0.0146424","-0.521204","-0.853306","0.995137","0.0907298","-0.0383421"
"8","151736867829022","9.94991","0.918564","-0.354431","0","0","0","0.0975644","-0.84875","0.519716","0.0144968","-0.52094","-0.85347","0.995124","0.0908025","-0.0385211"
"8","151736884583172","9.98822","0.937714","-0.373596","0","0","0","0.0966879","-0.820743","0.563056","0.0195829","-0.564028","-0.825523","0.995122","0.0908444","-0.0384622"
"8","151736901337323","10.0457","0.880249","-0.354431","0","0","0","0.0982754","-0.882868","0.459223","0.00801549","-0.46074","-0.887499","0.995127","0.0909002","-0.0382028"
"8","151736918183026","9.98822","0.880249","-0.354431","0","0","0","0.0975527","-0.851498","0.515203","0.0143155","-0.516418","-0.856217","0.995127","0.0909017","-0.0381883"
"8","151736934998211","9.98822","0.956879","-0.411911","0","0","0","0.0974822","-0.857698","0.504827","0.013058","-0.506097","-0.862377","0.995152","0.0906585","-0.0381357"
"8","151736951752362","9.98822","1.01434","-0.431061","0","0","0","0.0959456","-0.810629","0.577646","0.0213429","-0.578515","-0.815393","0.995158","0.090562","-0.0382048"
"8","151736968506512","10.0074","1.03351","-0.431061","0","0","0","0.0963508","-0.808946","0.579933","0.021576","-0.580809","-0.813754","0.995114","0.0909185","-0.0385076"
"8","151736985260662","9.96906","0.976028","-0.411911","0","0","0","0.0970354","-0.809671","0.578807","0.021485","-0.579712","-0.814538","0.995049","0.0914747","-0.0388568"
"8","151737002075848","9.94991","0.918564","-0.450226","0","0","0","0.0995933","-0.878167","0.467871","0.00870753","-0.469422","-0.882931","0.99499","0.092008","-0.0391046"
"8","151737018921551","9.98822","0.937714","-0.488541","0","0","0","0.0988051","-0.836802","0.538517","0.0168456","-0.539681","-0.841701","0.994964","0.092236","-0.0392267"
"8","151737035706219","10.0648","0.995193","-0.450226","0","0","0","0.0992151","-0.844536","0.526227","0.0151755","-0.527491","-0.849425","0.99495","0.0922616","-0.0395189"
"8","151737052399334","10.0648","1.01434","-0.450226","0","0","0","0.100046","-0.865691","0.490479","0.0107448","-0.491984","-0.870538","0.994925","0.0923642","-0.0399195"
"8","151737069245037","9.98822","1.07182","-0.431061","0","0","0","0.100456","-0.86242","0.496125","0.011246","-0.497632","-0.867316","0.994878","0.0927067","-0.0402915"
"8","151737086090740","9.83495","1.1293","-0.411911","0","0","0","0.100712","-0.848673","0.519241","0.0138484","-0.520648","-0.853659","0.994819","0.0931647","-0.040683"
"8","151737102814373","9.87326","1.14845","-0.431061","0","0","0","0.101596","-0.849549","0.517634","0.0137419","-0.519078","-0.854616","0.994731","0.0939388","-0.0410618"
"8","151737112793621","9.94991","1.1293","-0.450226","0","0","0","0.102887","-0.856594","0.505629","0.0126217","-0.507161","-0.861759","0.994613","0.0950459","-0.0413688"
"8","151737127838787","10.1606","1.05267","-0.469391","0","0","0","0.104099","-0.864135","0.492376","0.0114182","-0.493995","-0.86939","0.994501","0.0961243","-0.0415573"
"8","151737137238201","10.2756","1.03351","-0.507706","0","0","0","0.103612","-0.828366","0.550523","0.0187771","-0.551774","-0.833782","0.994441","0.0967272","-0.0416161"
"8","151737153198895","10.2181","0.995193","-0.546021","0","0","0","0.104308","-0.850762","0.515096","0.0144183","-0.516573","-0.856122","0.994441","0.0967272","-0.0416161"
"8","151737170014080","9.89243","0.956879","-0.431061","0","0","0","0.104456","-0.843781","0.526424","0.0155483","-0.527869","-0.849183","0.994408","0.0968875","-0.0420199"
"8","151737186768231","9.56674","1.01434","-0.354431","0","0","0","0.104147","-0.825436","0.554806","0.018645","-0.556121","-0.830892","0.994387","0.096879","-0.0425278"
"8","151737204346356","9.66252","1.11014","-0.469391","0","0","0","0.105016","-0.837831","0.535734","0.0165567","-0.537165","-0.843315","0.994333","0.0974318","-0.0425393"
"8","151737220276531","9.89243","1.18677","-0.526855","0","0","0","0.105401","-0.818222","0.565157","0.0204009","-0.566424","-0.823861","0.99422","0.0983657","-0.0430093"
"8","151737237122235","10.0074","1.20593","-0.660965","0","0","0","0.107223","-0.830145","0.54714","0.0180502","-0.548596","-0.835892","0.994071","0.0995028","-0.0438379"
"8","151737253906903","9.85411","1.16762","-0.56517","0","0","0","0.108709","-0.826247","0.552719","0.0183952","-0.554246","-0.832149","0.993903","0.100629","-0.0450526"
"8","151737270661053","9.75832","1.20593","-0.431061","0","0","0","0.11102","-0.866258","0.487106","0.00994367","-0.489143","-0.872147","0.993768","0.101669","-0.0456909"
"8","151737288330731","9.85411","1.34004","-0.431061","0","0","0","0.111825","-0.856073","0.504612","0.0128897","-0.506505","-0.862141","0.993644","0.102913","-0.0456055"
"8","151737304230389","9.96906","1.47415","-0.526855","0","0","0","0.112331","-0.880417","0.460702","0.00726057","-0.462897","-0.886382","0.993644","0.102913","-0.0456055"
"8","151737321015057","9.8158","1.55078","-0.603485","0","0","0","0.112869","-0.842189","0.527237","0.016906","-0.528923","-0.848502","0.993466","0.104683","-0.0454607"
"8","151737337799725","9.68169","1.51247","-0.469391","0","0","0","0.11494","-0.83665","0.535543","0.0189376","-0.537172","-0.84326","0.993192","0.107066","-0.0458983"
"8","151737354584393","9.68169","1.37836","-0.431061","0","0","0","0.117369","-0.830511","0.544496","0.0209859","-0.546089","-0.837464","0.992867","0.109719","-0.0466647"
"8","151737371338543","9.75832","1.30173","-0.62265","0","0","0","0.119521","-0.832954","0.54028","0.0215104","-0.541881","-0.84018","0.992599","0.112041","-0.0468491"
"8","151737388184246","9.91159","1.24425","-0.75676","0","0","0","0.122825","-0.901317","0.415382","0.00480093","-0.418006","-0.908431","0.992417","0.113572","-0.0470145"
"8","151737404968914","9.93074","1.26341","-0.890869","0","0","0","0.124192","-0.9025","0.412395","0.00379838","-0.415177","-0.909733","0.992251","0.114548","-0.0481337"
"8","151737421723065","9.93074","1.35919","-0.948334","0","0","0","0.124411","-0.851611","0.509196","0.0160634","-0.511387","-0.8592","0.992101","0.115073","-0.0499424"
"8","151737438477215","9.87326","1.56995","-0.910019","0","0","0","0.126145","-0.853521","0.505558","0.0139424","-0.508053","-0.861213","0.991914","0.115686","-0.0521881"
"8","151737455261883","9.79663","1.66573","-1.13992","0","0","0","0.127876","-0.834585","0.535832","0.017142","-0.538327","-0.842562","0.991642","0.116929","-0.0545326"
"8","151737472077069","9.73917","1.35919","-1.77214","0","0","0","0.131829","-0.868279","0.478239","0.00780611","-0.481525","-0.876397","0.991242","0.119268","-0.0567012"
"8","151737488861737","9.83495","1.03351","-2.13615","0","0","0","0.135663","-0.858216","0.495037","0.00804387","-0.498686","-0.866746","0.990722","0.121568","-0.06075"
"8","151737505646405","9.8158","0.63118","-2.02121","0","0","0","0.139411","-0.896792","0.419914","-0.00951589","-0.425249","-0.905026","0.990189","0.122174","-0.067818"
"8","151737522370037","9.4901","0.286331","-1.75299","0","0","0","0.141586","-0.898827","0.414804","-0.0182017","-0.421318","-0.90673","0.989759","0.12083","-0.076013"
"8","151737539215740","9.04945","0.0564423","-1.13992","0","0","0","0.13976","-0.921925","0.361278","-0.0342671","-0.369144","-0.928741","0.989592","0.117421","-0.0831834"
"8","151737556091961","9.24104","-0.154312","-0.0287476","0","0","0","0.135815","-0.888255","0.438813","-0.0326555","-0.44669","-0.894093","0.990196","0.107101","-0.0896736"
"8","151737572785076","9.60506","-0.115982","0.0287323","0","0","0","0.129199","-0.885792","0.445735","-0.0317477","-0.452967","-0.890962","0.99111","0.10096","-0.0866446"
"8","151737589600262","10.6971","0.190536","-0.124527","0","0","0","0.123347","-0.85711","0.500148","-0.0226206","-0.506294","-0.862064","0.992106","0.0950195","-0.0818383"
"8","151737606354412","12.3064","1.03351","-0.526855","0","0","0","0.117307","-0.864003","0.489631","-0.0227708","-0.495246","-0.868454","0.992835","0.0907265","-0.0777698"
"8","151737623169598","12.4213","1.47415","-0.469391","0","0","0","0.117026","-0.826034","0.551337","-0.0124226","-0.556326","-0.830872","0.993051","0.0903847","-0.0753661"
"8","151737639954266","11.4634","1.41667","-0.124527","0","0","0","0.116516","-0.845119","0.521725","-0.0165374","-0.526881","-0.849778","0.993051","0.0903847","-0.0753661"
"8","151737657715496","10.1798","1.14845","-0.0287476","0","0","0","0.115997","-0.862507","0.492572","-0.0132097","-0.497215","-0.867527","0.993162","0.0941235","-0.0690688"
"8","151737674256024","9.4901","0.861084","-0.373596","0","0","0","0.115545","-0.80177","0.586356","0.00283709","-0.590041","-0.807368","0.993298","0.0949513","-0.0659019"
"8","151737690247235","9.41347","0.61203","-0.641815","0","0","0","0.114457","-0.848609","0.516491","-0.00621258","-0.520509","-0.853834","0.993409","0.0945188","-0.0648481"
"8","151737707947430","9.47095","0.305496","-0.641815","0","0","0","0.113198","-0.839863","0.530864","-0.00541374","-0.534811","-0.844954","0.993558","0.0927732","-0.0650864"
"8","151737723847088","9.60506","-0.211777","-0.469391","0","0","0","0.11003","-0.848822","0.517102","-0.00900302","-0.521091","-0.853454","0.993887","0.0892503","-0.0649777"
"8","151737740631756","9.79663","-0.671585","-0.469391","0","0","0","0.109905","-0.855494","0.506014","-0.0104262","-0.510062","-0.860074","0.993887","0.0892503","-0.0649777"
"8","151737757355389","9.72","-1.09306","-0.469391","0","0","0","0.0967571","-0.83721","0.538253","-0.012925","-0.541802","-0.840407","0.995224","0.0743584","-0.0632442"
"8","151737774201092","9.62421","-1.01643","-0.488541","0","0","0","0.0967571","-0.83721","0.538253","-0.012925","-0.541802","-0.840407","0.995224","0.0743584","-0.0632442"
"8","151737791016278","9.58589","-0.690735","-0.411911","0","0","0","0.0877888","-0.84612","0.525712","-0.0192499","-0.529092","-0.848346","0.995953","0.0643553","-0.0627361"
"8","151737807770428","9.50926","-0.307571","-0.373596","0","0","0","0.0807642","-0.830236","0.55153","-0.0210856","-0.554637","-0.831825","0.99651","0.0555524","-0.0623009"
"8","151737824555096","9.37515","-0.135147","-0.373596","0","0","0","0.0752157","-0.82206","0.564411","-0.0228062","-0.567284","-0.823206","0.996906","0.049046","-0.0614168"
"8","151737841309246","9.43263","-0.0585175","-0.392746","0","0","0","0.0684725","-0.813957","0.576875","-0.0242019","-0.579418","-0.814672","0.997359","0.0418211","-0.0593735"
"8","151737858154949","9.68169","-0.0585175","-0.450226","0","0","0","0.0669485","-0.846287","0.528503","-0.0281444","-0.531083","-0.846852","0.997359","0.0418211","-0.0593735"
"8","151737874939617","9.91159","0.113907","-0.641815","0","0","0","0.0657926","-0.751242","0.65674","-0.0191388","-0.658995","-0.751904","0.99765","0.0369005","-0.0577349"
"8","151737891724285","10.1415","0.573715","-0.450226","0","0","0","0.064174","-0.778379","0.624506","-0.0228119","-0.626777","-0.778865","0.997678","0.0357367","-0.057979"
"8","151737908417401","10.3139","0.707825","-0.182007","0","0","0","0.0622163","-0.824547","0.562362","-0.0277095","-0.564664","-0.824856","0.997678","0.0357367","-0.057979"
"8","151737925263104","10.2948","0.573715","-0.0287476","0","0","0","0.0627551","-0.825007","0.561628","-0.0265245","-0.563917","-0.825406","0.997676","0.0369016","-0.0572715"
"8","151737942078289","10.2373","0.190536","-0.296951","0","0","0","0.0630322","-0.796879","0.600841","-0.0182568","-0.602858","-0.797639","0.997845","0.0393075","-0.052548"
"8","151737958862957","10.3714","-0.365051","-0.411911","0","0","0","0.0628506","-0.802738","0.593011","-0.0188725","-0.595036","-0.803478","0.997845","0.0393075","-0.052548"
"8","151737975678143","10.6588","-0.671585","-0.316116","0","0","0","0.0614488","-0.783124","0.618822","-0.0169701","-0.620724","-0.783845","0.997966","0.0376649","-0.0514324"
"8","151737992371258","10.8887","-0.556625","-0.143692","0","0","0","0.0579457","-0.771329","0.633794","-0.0181179","-0.635568","-0.771832","0.998155","0.0332413","-0.0508033"
"8","151738009247479","10.9461","-0.0776672","-0.0478973","0","0","0","0.0530135","-0.76221","0.645155","-0.0198175","-0.646739","-0.762454","0.998397","0.027635","-0.049391"
"8","151738026093182","10.8887","0.573715","0.201157","0","0","0","0.0484846","-0.754246","0.6548","-0.020319","-0.65618","-0.754331","0.998617","0.0232685","-0.0471401"
"8","151738042816815","10.6396","0.61203","0.910019","0","0","0","0.0460597","-0.736958","0.674367","-0.0178195","-0.675582","-0.737069","0.99878","0.0219323","-0.0442493"
"8","151738059601483","10.8503","-0.479996","-0.335281","0","0","0","0.0451477","-0.7129","0.699811","-0.0118125","-0.700857","-0.713204","0.99891","0.023933","-0.0400632"
"8","151738076325115","12.2106","-1.0739","-1.40814","0","0","0","0.0401629","-0.807075","0.589081","-0.0128575","-0.589925","-0.807355","0.99911","0.0248516","-0.0340701"
"8","151738093140301","13.1302","-1.47623","-1.6572","0","0","0","0.0377079","-0.781175","0.623173","-0.0146946","-0.623982","-0.7813","0.999181","0.0203039","-0.0350081"
"8","151738109924969","12.747","-1.66782","-2.97913","0","0","0","0.0355492","-0.777097","0.628376","-0.0231806","-0.629245","-0.776861","0.999099","0.0130507","-0.0403828"
"8","151738126709637","12.2297","-1.32297","-3.87956","0","0","0","0.0355413","-0.725828","0.686958","-0.0315494","-0.687864","-0.725153","0.99887","0.00409984","-0.047347"
"8","151738136261639","11.8657","-1.3038","-4.05199","0","0","0","0.0361388","-0.756988","0.652429","-0.0488832","-0.653412","-0.755422","0.99815","-0.00459272","-0.0606176"
"8","151738154205975","9.20273","-0.365051","-4.85663","0","0","0","0.0459017","-0.713948","0.698693","-0.0628037","-0.700109","-0.711269","0.99697","-0.011232","-0.0769748"
"8","151738168671307","8.32144","0.267181","-5.25896","0","0","0","0.0509218","-0.754682","0.654112","-0.0821718","-0.655907","-0.750356","0.995316","-0.01554","-0.0954135"
"8","151738178009686","7.2869","1.45499","-5.25896","0","0","0","0.0554526","-0.813562","0.578828","-0.103984","-0.581273","-0.807037","0.993032","-0.0154366","-0.116831"
"8","151738193848309","7.45932","2.02974","-3.4006","0","0","0","0.075181","-0.810524","0.58086","-0.115976","-0.585663","-0.802215","0.990403","-0.00705461","-0.138032"
"8","151738211640057","8.70461","1.89563","-2.51932","0","0","0","0.0773555","-0.869761","0.487372","-0.128482","-0.493457","-0.860228","0.98869","0.00392464","-0.149921"
"8","151738228241619","10.8887","1.2251","-2.69174","0","0","0","0.0834913","-0.888819","0.450589","-0.132841","-0.458059","-0.87894","0.987615","0.0135272","-0.156315"
"8","151738245117840","12.2106","-0.0010376","-3.09407","0","0","0","0.0931098","-0.878767","0.468079","-0.133461","-0.476895","-0.868769","0.98667","0.0184204","-0.161685"
"8","151738261017498","12.0956","-1.41875","-2.74922","0","0","0","0.092409","-0.883534","0.45916","-0.140343","-0.468087","-0.872467","0.985781","0.0161837","-0.167254"
"8","151738277741131","11.0611","-2.26172","-2.46185","0","0","0","0.0901244","-0.870354","0.484109","-0.145252","-0.492377","-0.858177","0.985281","0.00702455","-0.170796"
"8","151738294525799","9.68169","-1.87856","-2.00204","0","0","0","0.0846762","-0.858964","0.504986","-0.151521","-0.512012","-0.845509","0.98482","-0.00492172","-0.173507"
"8","151738311402020","8.37892","-0.805695","-1.21655","0","0","0","0.0770529","-0.860919","0.502873","-0.157156","-0.508555","-0.846566","0.984563","-0.0137993","-0.174484"
"8","151738328125653","7.13364","1.20593","-0.69928","0","0","0","0.0831247","-0.833129","0.546797","-0.152077","-0.552875","-0.819269","0.984867","-0.0150535","-0.172657"
"8","151738345886883","7.15279","1.95311","-1.00581","0","0","0","0.0885171","-0.831173","0.548922","-0.145664","-0.555962","-0.818344","0.985366","-0.00752083","-0.170284"
"8","151738361786541","7.63174","2.22133","-1.13992","0","0","0","0.0932449","-0.846527","0.524117","-0.141377","-0.532333","-0.834646","0.985555","0.00372868","-0.169316"
"8","151738378388104","8.34061","2.08722","-0.986664","0","0","0","0.108969","-0.82038","0.56134","-0.129114","-0.5716","-0.810311","0.985624","0.0158219","-0.168209"
"8","151738396210369","9.24104","1.819","-0.871704","0","0","0","0.113441","-0.832856","0.54174","-0.123592","-0.552854","-0.824062","0.985828","0.0265278","-0.165651"
"8","151738412201580","9.75832","1.76152","-0.69928","0","0","0","0.119852","-0.826048","0.550709","-0.114137","-0.562494","-0.818885","0.986209","0.0352893","-0.161698"
"8","151738428803143","9.70084","1.74237","-0.62265","0","0","0","0.126653","-0.808532","0.574661","-0.101774","-0.58686","-0.803266","0.986712","0.0432501","-0.156615"
"8","151738445618328","9.43263","1.51247","-0.507706","0","0","0","0.130207","-0.803716","0.580591","-0.0924048","-0.592865","-0.799983","0.987171","0.0505139","-0.151462"
"8","151738463257489","8.99199","0.956879","-0.277802","0","0","0","0.128589","-0.822032","0.554733","-0.0889408","-0.566682","-0.819122","0.987702","0.0559916","-0.145981"
"8","151738479187664","8.47472","0.209702","0.143677","0","0","0","0.12417","-0.836577","0.533593","-0.0861236","-0.544811","-0.834124","0.988516","0.0576181","-0.139698"
"8","151738496185955","8.62798","0.190536","0.373581","0","0","0","0.120285","-0.825523","0.551402","-0.0781928","-0.561587","-0.823714","0.989655","0.0559646","-0.1321"
"8","151738512757000","9.22188","0.592865","0.431061","0","0","0","0.119605","-0.779747","0.614565","-0.0627042","-0.623705","-0.779141","0.990839","0.0546533","-0.123492"
"8","151738529511151","9.94991","1.11014","0.181992","0","0","0","0.118024","-0.741754","0.660206","-0.0484325","-0.668361","-0.742258","0.991829","0.0556288","-0.114808"
"8","151738546295819","10.3905","1.37836","-0.546021","0","0","0","0.114315","-0.767416","0.630876","-0.0457015","-0.638429","-0.768322","0.992393","0.0589984","-0.108054"
"8","151738563111004","10.7162","1.45499","-0.929184","0","0","0","0.117659","-0.73241","0.67062","-0.0342473","-0.677902","-0.734354","0.992463","0.0634368","-0.104845"
"8","151738579895672","11.1569","1.74237","-1.00581","0","0","0","0.118734","-0.762832","0.635603","-0.0358566","-0.643007","-0.76502","0.992279","0.068043","-0.103699"
"8","151738596680340","12.019","2.29796","-0.277802","0","0","0","0.123533","-0.730387","0.67177","-0.0248978","-0.679023","-0.733694","0.992028","0.0739099","-0.102067"
"8","151738613373455","13.2451","2.66196","0.392746","0","0","0","0.125399","-0.733579","0.667935","-0.0153261","-0.674601","-0.738023","0.991988","0.0823106","-0.0958373"
"8","151738630249676","13.5133","1.819","1.0058","0","0","0","0.124883","-0.706007","0.697107","0.00194566","-0.702432","-0.711749","0.99217","0.0902414","-0.0863479"
"8","151738647064862","13.4367","1.32088","0.316101","0","0","0","0.118873","-0.686082","0.717747","0.015092","-0.721541","-0.692207","0.992795","0.0931169","-0.0754174"
"8","151738663819012","12.6704","1.39752","-1.02498","0","0","0","0.115277","-0.694078","0.71061","0.0182156","-0.713782","-0.700131","0.993166","0.0936534","-0.0696398"
"8","151738681641278","11.6741","2.25964","-2.40437","0","0","0","0.118117","-0.721038","0.682754","0.0136454","-0.686323","-0.727169","0.992906","0.0952072","-0.0712273"
"8","151738697327313","10.4289","4.06052","-5.08653","0","0","0","0.130199","-0.727739","0.673383","0.00983207","-0.678183","-0.734827","0.991439","0.102294","-0.0811436"
"8","151738715088543","10.1415","4.92264","-7.07899","0","0","0","0.157327","-0.722402","0.673338","0.00434919","-0.681316","-0.731977","0.987537","0.118088","-0.104047"
"8","151738731171307","9.93074","4.13715","-7.11731","0","0","0","0.186991","-0.828492","0.52786","-0.0398359","-0.543291","-0.838599","0.981554","0.135783","-0.134594"
"8","151738747711834","8.83871","2.01057","-5.14401","0","0","0","0.214563","-0.808948","0.547326","-0.0503521","-0.568794","-0.820938","0.975411","0.148584","-0.162774"
"8","151738764496502","8.74294","-0.0968323","-3.72629","0","0","0","0.220757","-0.847609","0.48252","-0.0805917","-0.508886","-0.857053","0.971994","0.150313","-0.18065"
"8","151738781220135","8.68546","-1.05475","-2.71091","0","0","0","0.224056","-0.815763","0.533226","-0.080216","-0.560716","-0.824113","0.971269","0.141875","-0.191069"
"8","151738799774823","8.95367","-0.499161","-2.09784","0","0","0","0.220285","-0.796946","0.562451","-0.0831344","-0.589856","-0.803217","0.971886","0.130178","-0.19619"
"8","151738815003094","9.26021","0.63118","-2.21278","0","0","0","0.211263","-0.819151","0.533254","-0.0973662","-0.560492","-0.822416","0.972568","0.121825","-0.198169"
"8","151738831574139","9.06862","3.06429","-2.05952","0","0","0","0.216503","-0.785491","0.579767","-0.0871167","-0.607027","-0.789892","0.972387","0.120506","-0.199852"
"8","151738847809490","8.95367","3.46661","-2.00204","0","0","0","0.21213","-0.848272","0.485216","-0.108073","-0.513834","-0.851055","0.971247","0.128096","-0.200676"
"8","151738865112957","8.12987","3.04514","-2.42352","0","0","0","0.232322","-0.853297","0.466809","-0.102943","-0.498817","-0.860572","0.967176","0.151875","-0.203727"
"8","151738881897625","8.12987","3.04514","-2.42352","0","0","0","0.232322","-0.853297","0.466809","-0.102943","-0.498817","-0.860572","0.967176","0.151875","-0.203727"
"8","151738898651776","7.45932","2.47038","-2.13615","0","0","0","0.22751","-0.90608","0.356733","-0.130225","-0.39136","-0.910977","0.965029","0.160801","-0.207032"
"8","151738915436444","7.53595","0.899399","-1.61888","0","0","0","0.228308","-0.916449","0.32863","-0.137008","-0.364428","-0.921098","0.963901","0.165269","-0.208763"
"8","151738931702313","8.09155","0.171387","-1.5614","0","0","0","0.223138","-0.923088","0.313238","-0.141971","-0.348689","-0.926423","0.964393","0.16225","-0.208858"
"8","151738949005780","8.8004","-0.0393524","-1.33151","0","0","0","0.221044","-0.9124","0.344479","-0.136169","-0.37863","-0.915477","0.965711","0.155454","-0.207934"
"8","151738965820965","9.20273","0.0181122","-1.13992","0","0","0","0.210402","-0.919631","0.331676","-0.139549","-0.364049","-0.920866","0.967604","0.147467","-0.204931"
"8","151738982666668","9.22188","0.152222","-1.08244","0","0","0","0.203423","-0.917192","0.342603","-0.136317","-0.373043","-0.917745","0.969555","0.139987","-0.200915"
"8","151738999390301","9.16441","0.286331","-0.603485","0","0","0","0.194459","-0.921993","0.334836","-0.13625","-0.363432","-0.921604","0.971402","0.133593","-0.196294"
"8","151739016205487","8.95367","0.535385","-0.143692","0","0","0","0.187149","-0.923207","0.335656","-0.131367","-0.362145","-0.922818","0.973508","0.128611","-0.189054"
"8","151739032929119","9.10693","0.822769","0.220322","0","0","0","0.176356","-0.936346","0.30357","-0.130328","-0.327901","-0.935679","0.97566","0.125449","-0.179859"
"8","151739049713787","9.60506","1.07182","0.239471","0","0","0","0.173323","-0.931254","0.320509","-0.117662","-0.342683","-0.932054","0.977811","0.123835","-0.168969"
"8","151739066559490","10.1032","1.26341","0.0862122","0","0","0","0.165309","-0.943295","0.287866","-0.114095","-0.308213","-0.944451","0.97962","0.123282","-0.158576"
"8","151739083283123","11.0994","0.68866","-0.431061","0","0","0","0.159778","-0.945071","0.285151","-0.0972659","-0.302528","-0.948165","0.982349","0.123761","-0.140261"
"8","151739100098309","11.1186","0.113907","-0.507706","0","0","0","0.15681","-0.940846","0.300364","-0.0887027","-0.316314","-0.944498","0.983637","0.121463","-0.133057"
"8","151739116333660","11.1186","0.113907","-0.507706","0","0","0","0.15681","-0.940846","0.300364","-0.0887027","-0.316314","-0.944498","0.983637","0.121463","-0.133057"
"8","151739133118328","11.655","-1.20801","-0.316116","0","0","0","0.155384","-0.904153","0.39795","-0.0703457","-0.411947","-0.908488","0.985346","0.113171","-0.127613"
"8","151739150452313","12.383","-1.74445","1.77214","0","0","0","0.133674","-0.932631","0.335158","-0.0789128","-0.347137","-0.934489","0.987879","0.0984688","-0.12"
"8","151739166687664","12.2106","-1.3996","2.13614","0","0","0","0.111312","-0.944094","0.310315","-0.0736881","-0.319237","-0.944806","0.99105","0.0823012","-0.105103"
"8","151739183502850","11.3293","-0.671585","2.19362","0","0","0","0.0943401","-0.941944","0.322245","-0.0583824","-0.328366","-0.942745","0.993827","0.0701252","-0.085971"
"8","151739200226483","11.8274","0.650345","-2.34689","0","0","0","0.0860825","-0.933069","0.349246","-0.0483981","-0.35405","-0.933973","0.995112","0.0634959","-0.0756363"
"8","151739217072186","11.1569","0.61203","-3.93703","0","0","0","0.0877628","-0.938345","0.334374","-0.0585107","-0.339946","-0.938623","0.994421","0.0628117","-0.0847378"
"8","151739233856854","9.14525","0.535385","-6.86826","0","0","0","0.089774","-0.952934","0.289581","-0.0809911","-0.296777","-0.951506","0.992664","0.061967","-0.103822"
"8","151739250611004","8.39807","1.89563","-7.09814","0","0","0","0.0989257","-0.955059","0.279421","-0.11235","-0.289723","-0.950494","0.988732","0.0626353","-0.135962"
"8","151739267426190","9.68169","3.02597","-6.56172","0","0","0","0.105811","-0.972177","0.208988","-0.147685","-0.223201","-0.96352","0.983358","0.0710864","-0.167193"
"8","151739284180340","11.4826","2.43207","-5.75706","0","0","0","0.121691","-0.971431","0.203748","-0.169437","-0.222592","-0.960075","0.977999","0.0823102","-0.191684"
"8","151739300965008","12.1339","2.01057","-4.55009","0","0","0","0.110142","-0.98978","0.0905724","-0.197693","-0.111123","-0.973945","0.974057","0.089367","-0.207912"
"8","151739317780194","12.5554","1.34004","-4.74168","0","0","0","0.121274","-0.985447","0.119105","-0.203739","-0.142148","-0.968651","0.971485","0.0932056","-0.218013"
"8","151739334534344","11.1952","-0.345886","-1.5614","0","0","0","0.10774","-0.992328","0.0606459","-0.216653","-0.08297","-0.972717","0.970285","0.0916614","-0.22393"
"8","151739351319012","9.77748","-1.34212","-0.316116","0","0","0","0.118028","-0.981799","0.148795","-0.20187","-0.170436","-0.964469","0.972275","0.0837969","-0.218312"
"8","151739368103680","8.89619","-1.64865","-0.737595","0","0","0","0.103218","-0.984855","0.139312","-0.196587","-0.157496","-0.967754","0.975038","0.0725025","-0.209866"
"8","151739384888348","8.95367","-1.43791","-1.15909","0","0","0","0.0940599","-0.982992","0.157735","-0.191561","-0.173347","-0.966051","0.976963","0.0606507","-0.204608"
"8","151739401673016","8.99199","-0.997269","-1.06329","0","0","0","0.0833697","-0.983847","0.158413","-0.189727","-0.17173","-0.966702","0.978291","0.0505384","-0.200979"
"8","151739418457684","8.78125","-0.384201","-1.36983","0","0","0","0.0829025","-0.976864","0.197141","-0.184347","-0.20944","-0.960287","0.979359","0.0432677","-0.197445"
"8","151739435242352","8.24481","0.362961","-1.5614","0","0","0","0.0942419","-0.956064","0.277597","-0.176067","-0.290448","-0.940553","0.979856","0.0397637","-0.195704"
"8","151739451996502","8.18733","1.1293","-1.13992","0","0","0","0.0944001","-0.955803","0.278442","-0.175983","-0.291308","-0.940303","0.979856","0.0397637","-0.195704"
"8","151739468811688","8.03407","1.79984","-0.603485","0","0","0","0.0948369","-0.956154","0.277084","-0.175004","-0.290017","-0.940885","0.97999","0.0407398","-0.194835"
"8","151739486145672","7.97659","1.74237","-0.56517","0","0","0","0.102076","-0.959968","0.260849","-0.165341","-0.274943","-0.947137","0.98094","0.053551","-0.186788"
"8","151739502930340","7.82333","1.47415","-0.526855","0","0","0","0.107754","-0.959245","0.261223","-0.15844","-0.275964","-0.948019","0.981471","0.0607646","-0.181719"
"8","151739519684490","7.59343","1.35919","-0.239487","0","0","0","0.11385","-0.954998","0.273893","-0.150528","-0.289085","-0.945395","0.982028","0.0664045","-0.176666"
"8","151739535950360","7.55511","1.41667","0.220322","0","0","0","0.118467","-0.951069","0.285366","-0.141447","-0.300623","-0.943196","0.982832","0.0713734","-0.17014"
"8","151739553253826","7.76585","1.56995","0.50769","0","0","0","0.115344","-0.962362","0.24608","-0.136192","-0.260715","-0.955761","0.983945","0.0767274","-0.161138"
"8","151739569489178","8.24481","1.4933","0.354416","0","0","0","0.124275","-0.947891","0.293358","-0.118888","-0.307745","-0.944012","0.9851","0.0824407","-0.150937"
"8","151739586304364","8.83871","1.30173","0.296951","0","0","0","0.134557","-0.918304","0.372307","-0.0974423","-0.386166","-0.917268","0.986103","0.0871465","-0.141443"
"8","151739603607830","9.47095","0.880249","0.0670471","0","0","0","0.13242","-0.923408","0.360253","-0.0898233","-0.373137","-0.923418","0.987115","0.0899195","-0.132354"
"8","151739619873699","10.2564","0.726974","-1.31235","0","0","0","0.127941","-0.930397","0.3435","-0.0864876","-0.355493","-0.930669","0.988003","0.0893624","-0.12595"
"8","151739637177166","10.9845","2.06805","-2.63428","0","0","0","0.132137","-0.913806","0.384055","-0.0821894","-0.396219","-0.91447","0.987818","0.0892697","-0.12746"
"8","151739653961834","12.0956","4.17546","-2.17447","0","0","0","0.139269","-0.926935","0.34842","-0.0911473","-0.362354","-0.927573","0.986051","0.0974243","-0.134952"
"8","151739670197186","13.9731","4.76938","1.44644","0","0","0","0.156909","-0.917512","0.365446","-0.0806936","-0.380703","-0.92117","0.984311","0.115051","-0.133773"
"8","151739687012371","14.5287","3.29419","3.17068","0","0","0","0.162707","-0.925317","0.342512","-0.059788","-0.355746","-0.932668","0.984861","0.131273","-0.113205"
"8","151739704346356","14.4904","1.24425","0.910019","0","0","0","0.160839","-0.907342","0.388408","-0.0275538","-0.397506","-0.917186","0.986596","0.136817","-0.0889354"
"8","151739720581707","12.7662","0.228867","-2.51932","0","0","0","0.152844","-0.920302","0.360117","-0.0271367","-0.368169","-0.929363","0.987878","0.132275","-0.0812463"
"8","151739737915692","11.1377","1.20593","-4.93326","0","0","0","0.15319","-0.885477","0.438707","-0.0262626","-0.447438","-0.893929","0.987848","0.125419","-0.0917979"
"8","151739754151043","10.199","2.96849","-6.96405","0","0","0","0.16169","-0.896437","0.412622","-0.0493269","-0.424943","-0.903875","0.985608","0.125794","-0.112927"
"8","151739770935711","11.5784","2.96849","-7.17479","0","0","0","0.181066","-0.893911","0.410047","-0.0725179","-0.427939","-0.900894","0.980794","0.133385","-0.14231"
"8","151739787720379","10.8695","3.65819","-7.84532","0","0","0","0.19617","-0.908705","0.368474","-0.103936","-0.392927","-0.913677","0.975046","0.140938","-0.171528"
"8","151739805084881","10.4672","2.27879","-6.42761","0","0","0","0.203892","-0.935097","0.289866","-0.143113","-0.321374","-0.936075","0.968476","0.149374","-0.19935"
"8","151739821869549","10.0265","0.74614","-4.30104","0","0","0","0.224645","-0.901756","0.369283","-0.140967","-0.405057","-0.903359","0.96419","0.150878","-0.218112"
"8","151739838776287","9.43263","0.113907","-3.32397","0","0","0","0.211857","-0.930162","0.299859","-0.168176","-0.336945","-0.926383","0.962722","0.145831","-0.227815"
"8","151739855499920","8.60883","0.726974","-1.98289","0","0","0","0.212516","-0.921124","0.326141","-0.168647","-0.363331","-0.916269","0.962494","0.139719","-0.232558"
"8","151739872223553","7.7467","1.78069","-1.50394","0","0","0","0.212038","-0.918491","0.333788","-0.166723","-0.370546","-0.913728","0.962935","0.138094","-0.231704"
"8","151739888458905","7.34438","2.66196","-1.90625","0","0","0","0.213191","-0.923212","0.319733","-0.166973","-0.35687","-0.91911","0.962637","0.14256","-0.230233"
"8","151739905884442","8.12987","2.64281","-1.92542","0","0","0","0.206437","-0.948192","0.241486","-0.182194","-0.279737","-0.942631","0.961348","0.150596","-0.230503"
"8","151739922608074","8.39807","2.5087","-2.17447","0","0","0","0.208359","-0.954042","0.215386","-0.18584","-0.254825","-0.948961","0.960235","0.157697","-0.230394"
"8","151739938873944","8.30229","1.91479","-2.36606","0","0","0","0.196715","-0.971781","0.130171","-0.203631","-0.170364","-0.964111","0.959082","0.163148","-0.231398"
"8","151739956177410","8.07239","1.16762","-2.05952","0","0","0","0.20856","-0.962043","0.175998","-0.195273","-0.217294","-0.956374","0.958317","0.165093","-0.23318"
"8","151739972992596","7.68922","0.439606","-1.40814","0","0","0","0.199186","-0.96994","0.139787","-0.203501","-0.180476","-0.962297","0.958599","0.16323","-0.233332"
"8","151739989197430","7.80417","-0.154312","-0.526855","0","0","0","0.189221","-0.974595","0.119833","-0.205462","-0.158634","-0.965723","0.960198","0.158114","-0.230259"
"8","151740006561932","8.32144","-0.537476","-0.162857","0","0","0","0.189494","-0.967467","0.167632","-0.190489","-0.203705","-0.960322","0.963227","0.150043","-0.222893"
"8","151740023346600","8.47472","-0.499161","-0.124527","0","0","0","0.171902","-0.975339","0.138433","-0.18888","-0.17055","-0.967077","0.966837","0.140095","-0.21354"
"8","151740039581951","8.45555","-0.115982","0.52684","0","0","0","0.163595","-0.974578","0.153084","-0.178611","-0.18187","-0.966965","0.970224","0.130848","-0.203824"
"8","151740056915936","8.55135","0.190536","0.833374","0","0","0","0.151194","-0.979364","0.134117","-0.170411","-0.159469","-0.972383","0.973705","0.124163","-0.191005"
"8","151740073700604","8.89619","0.420441","0.69928","0","0","0","0.143452","-0.98118","0.12926","-0.158343","-0.151684","-0.975664","0.976908","0.119493","-0.177122"
"8","151740090454754","9.72","0.49707","0.411896","0","0","0","0.145172","-0.972974","0.179573","-0.139043","-0.199757","-0.96993","0.979588","0.115838","-0.164285"
"8","151740107269940","10.7929","0.63118","0.0287323","0","0","0","0.138591","-0.974908","0.174205","-0.129689","-0.192254","-0.972738","0.981821","0.11222","-0.15308"
"8","151740124054608","11.655","0.841919","-0.143692","0","0","0","0.126538","-0.984661","0.120128","-0.12818","-0.136317","-0.982338","0.983645","0.108905","-0.143463"
"8","151740140839276","11.9615","1.05267","-0.201172","0","0","0","0.127966","-0.978699","0.160541","-0.114896","-0.175411","-0.977768","0.985101","0.106675","-0.134895"
"8","151740157684979","11.7316","0.822769","0.00956726","0","0","0","0.13064","-0.968701","0.211071","-0.100433","-0.224731","-0.969231","0.98633","0.105422","-0.126648"
"8","151740174378094","12.019","-0.0202026","0.220322","0","0","0","0.114089","-0.988712","0.0971165","-0.106865","-0.109401","-0.988237","0.987706","0.102368","-0.11814"
"8","151740191193280","12.4405","-1.24632","1.58055","0","0","0","0.109899","-0.981197","0.158665","-0.089779","-0.168779","-0.981557","0.98988","0.0936275","-0.10664"
"8","151740207977948","12.3255","-1.13138","-0.0862122","0","0","0","0.10017","-0.966488","0.236362","-0.0701599","-0.243827","-0.967278","0.992494","0.080309","-0.0922328"
"8","151740224762615","12.9577","-0.135147","-2.95996","0","0","0","0.0877067","-0.973511","0.211149","-0.0723785","-0.217633","-0.973343","0.993513","0.070086","-0.0895492"
"8","151740241577801","11.9615","-0.365051","-4.99074","0","0","0","0.0804272","-0.982792","0.166289","-0.0882248","-0.173194","-0.980928","0.992848","0.0642224","-0.100636"
"8","151740258301434","10.7929","-0.0393524","-7.17479","0","0","0","0.0827726","-0.975362","0.204493","-0.108521","-0.212798","-0.971051","0.990642","0.0581846","-0.123461"
"8","151740275116619","10.7162","0.880249","-6.46593","0","0","0","0.0783455","-0.9857","0.14919","-0.142154","-0.159167","-0.976964","0.986739","0.0553326","-0.152591"
"8","151740291901287","11.0419","1.68489","-5.75706","0","0","0","0.0717862","-0.994386","0.0777368","-0.171378","-0.0890756","-0.98117","0.982587","0.0571122","-0.17681"
"8","151740308716473","10.7929","2.4129","-4.14778","0","0","0","0.081741","-0.992608","0.0897094","-0.187026","-0.103688","-0.976867","0.978948","0.0630721","-0.194119"
"8","151740325470623","11.0036","2.02974","-4.24356","0","0","0","0.0807418","-0.996087","0.0359393","-0.200331","-0.0515388","-0.978372","0.976396","0.0717958","-0.203708"
"8","151740342224774","11.1186","1.01434","-3.55386","0","0","0","0.097545","-0.991449","0.0866795","-0.204468","-0.105201","-0.973204","0.974001","0.077208","-0.212982"
"8","151740359009442","10.4097","-0.154312","-2.2511","0","0","0","0.0864308","-0.995652","0.0347264","-0.213854","-0.052586","-0.975449","0.973035","0.0768825","-0.217469"
"8","151740375855145","9.66252","-0.863159","-2.36606","0","0","0","0.0730895","-0.997325","0.000148823","-0.21686","-0.0160383","-0.976071","0.973463","0.0713082","-0.217452"
"8","151740392639813","8.8004","-0.939789","-2.69174","0","0","0","0.0757705","-0.995869","0.0500284","-0.21519","-0.0653218","-0.974385","0.973628","0.0630641","-0.21925"
"8","151740409424481","8.07239","-0.518311","-2.13615","0","0","0","0.0819312","-0.990446","0.11092","-0.214331","-0.126201","-0.968574","0.973319","0.0555827","-0.222623"
"8","151740426209149","7.57426","0.075592","-1.59972","0","0","0","0.0718686","-0.993668","0.0863681","-0.217927","-0.100144","-0.970814","0.973315","0.0509491","-0.223744"
"8","151740442993817","7.2869","0.765289","-1.6572","0","0","0","0.0848301","-0.984954","0.150564","-0.212281","-0.165505","-0.963091","0.97352","0.0497373","-0.223127"
"8","151740459778485","7.13364","1.4933","-1.5614","0","0","0","0.0863239","-0.985685","0.144818","-0.212176","-0.160216","-0.964008","0.973411","0.0524899","-0.222969"
"8","151740476532635","7.59343","2.33627","-1.00581","0","0","0","0.091667","-0.986443","0.136113","-0.210414","-0.15279","-0.965599","0.973305","0.0598734","-0.221568"
"8","151740493286785","8.26398","2.37459","-1.06329","0","0","0","0.0903165","-0.992449","0.0829944","-0.210158","-0.100451","-0.972493","0.973487","0.0703902","-0.217643"
"8","151740510101971","8.66629","2.01057","-1.08244","0","0","0","0.104498","-0.988892","0.105702","-0.202764","-0.125236","-0.971186","0.973636","0.0800546","-0.213599"
"8","151740526886639","8.5705","1.4933","-0.69928","0","0","0","0.117557","-0.983298","0.138941","-0.193306","-0.159893","-0.968022","0.97407","0.0869391","-0.208874"
"8","151740543671307","8.26398","1.11014","-0.335281","0","0","0","0.120175","-0.983136","0.13785","-0.186498","-0.158742","-0.969546","0.975078","0.0908061","-0.202429"
"8","151740560455975","8.32144","0.841919","-0.00958252","0","0","0","0.124013","-0.979963","0.155862","-0.176345","-0.17634","-0.968404","0.976485","0.0926092","-0.19468"
"8","151740577271160","8.66629","0.726974","0.220322","0","0","0","0.119875","-0.982943","0.139477","-0.169041","-0.158647","-0.972757","0.978292","0.0930317","-0.185175"
"8","151740593994793","9.1261","0.61203","0.258636","0","0","0","0.117994","-0.982832","0.141842","-0.158339","-0.159634","-0.974395","0.980309","0.0925142","-0.174456"
"8","151740610779461","9.73917","0.63118","0.296951","0","0","0","0.12125","-0.975356","0.184334","-0.142834","-0.200916","-0.969139","0.982292","0.091179","-0.163675"
"8","151740627533612","10.0265","0.861084","0.411896","0","0","0","0.128137","-0.956373","0.262547","-0.122561","-0.27797","-0.952739","0.984154","0.0899026","-0.152833"
"8","151740644379315","10.1606","1.05267","0.162842","0","0","0","0.118077","-0.971613","0.205001","-0.119356","-0.218835","-0.968434","0.985805","0.0898815","-0.141807"
"8","151740661194500","10.6779","1.2251","-0.833389","0","0","0","0.121266","-0.962774","0.241581","-0.106774","-0.254618","-0.961129","0.986861","0.090758","-0.133676"
"8","151740677948651","11.6741","1.819","-1.02498","0","0","0","0.12509","-0.955348","0.2677","-0.100049","-0.280591","-0.954599","0.987088","0.0926277","-0.13068"
"8","151740694733319","12.8811","2.58533","0.411896","0","0","0","0.126337","-0.960879","0.246476","-0.0975463","-0.259297","-0.960859","0.98718","0.0973494","-0.126489"
"8","151740711487469","13.4559","2.83438","1.48476","0","0","0","0.132547","-0.953522","0.270605","-0.0799712","-0.282412","-0.955954","0.987945","0.105068","-0.113687"
"8","151740728302655","13.839","2.81523","-0.105377","0","0","0","0.129619","-0.973809","0.186803","-0.0746582","-0.197442","-0.977468","0.988749","0.112752","-0.0982951"
"8","151740745087323","13.59","2.71944","-2.99828","0","0","0","0.138566","-0.9609","0.239729","-0.0615156","-0.249948","-0.966303","0.988441","0.119149","-0.0937446"
"8","151740761810955","13.1302","3.96472","-5.64212","0","0","0","0.150015","-0.953087","0.262907","-0.0682676","-0.275267","-0.958941","0.986324","0.125907","-0.106359"
"8","151740778656658","11.5975","3.88809","-6.00613","0","0","0","0.166396","-0.95365","0.250727","-0.0877047","-0.267578","-0.959536","0.982151","0.137673","-0.128163"
"8","151740795441326","9.72","2.66196","-6.23602","0","0","0","0.180771","-0.955034","0.235014","-0.109737","-0.257044","-0.960149","0.977384","0.147777","-0.151268"
"8","151740812164959","8.34061","1.4933","-5.92949","0","0","0","0.176645","-0.975413","0.131777","-0.150683","-0.159103","-0.975695","0.972672","0.152495","-0.175083"
"8","151740829041180","8.14902","-0.0776672","-4.51178","0","0","0","0.193796","-0.956426","0.218385","-0.154613","-0.249599","-0.955926","0.968782","0.15149","-0.196248"
"8","151740845734295","8.76208","-0.78653","-3.1707","0","0","0","0.19078","-0.954626","0.228673","-0.167218","-0.261152","-0.950704","0.967286","0.143137","-0.209453"
"8","151740862579998","9.43263","-0.0010376","-3.07491","0","0","0","0.180014","-0.95975","0.215582","-0.178606","-0.24741","-0.952307","0.967313","0.132924","-0.215954"
"8","151740879364666","9.94991","0.899399","-3.47723","0","0","0","0.179028","-0.955206","0.235651","-0.181443","-0.267468","-0.946329","0.966968","0.126662","-0.2212"
"8","151740896149334","9.18356","3.08345","-3.03659","0","0","0","0.175866","-0.960131","0.217301","-0.190781","-0.249798","-0.949317","0.96575","0.125496","-0.227106"
"8","151740912903485","8.18733","4.06052","-2.51932","0","0","0","0.186925","-0.958488","0.215316","-0.192322","-0.250643","-0.948784","0.963365","0.135942","-0.231189"
"8","151740929108319","7.7467","3.65819","-2.09784","0","0","0","0.185502","-0.973421","0.134312","-0.206995","-0.172327","-0.963045","0.960595","0.150845","-0.23346"
"8","151740946442303","7.7467","2.7386","-1.96373","0","0","0","0.196563","-0.972003","0.128736","-0.206592","-0.169408","-0.96365","0.958479","0.162823","-0.234107"
"8","151740963226971","7.86165","1.79984","-1.8871","0","0","0","0.201033","-0.972438","0.118108","-0.207818","-0.160163","-0.964966","0.957286","0.169444","-0.234289"
"8","151740980011639","8.24481","0.899399","-1.67636","0","0","0","0.191092","-0.979263","0.0672802","-0.217581","-0.109097","-0.969926","0.957153","0.170707","-0.233917"
"8","151740996826824","8.55135","-0.0010376","-1.23572","0","0","0","0.184126","-0.98138","0.0546822","-0.218487","-0.0951071","-0.971194","0.958312","0.166875","-0.231931"
"8","151741013642010","8.68546","-0.499161","-0.660965","0","0","0","0.181704","-0.979673","0.0849915","-0.209168","-0.122958","-0.970119","0.96085","0.158497","-0.227258"
"8","151741030396160","8.5705","-0.690735","-0.258636","0","0","0","0.161933","-0.98569","0.046836","-0.209764","-0.0807609","-0.974411","0.964249","0.147965","-0.21984"
"8","151741047211346","8.51303","-0.403366","-0.201172","0","0","0","0.151453","-0.987115","0.0516399","-0.201276","-0.0819455","-0.976101","0.967755","0.13744","-0.211093"
"8","151741063996014","8.30229","-0.0393524","-0.0862122","0","0","0","0.158659","-0.977673","0.13778","-0.180158","-0.165872","-0.969551","0.970758","0.129006","-0.202452"
"8","151741080811199","8.35976","0.228867","0.258636","0","0","0","0.14979","-0.980035","0.130748","-0.173359","-0.156224","-0.972389","0.973401","0.122988","-0.193298"
"8","151741097565350","8.74294","0.477921","0.58432","0","0","0","0.130457","-0.989976","0.0541239","-0.173966","-0.0766","-0.981768","0.976072","0.118662","-0.182215"
"8","151741114350018","9.37515","0.784454","0.546005","0","0","0","0.139003","-0.981418","0.132277","-0.151141","-0.153034","-0.976595","0.97869","0.115757","-0.169605"
"8","151741131134686","9.83495","0.937714","-0.0670624","0","0","0","0.130564","-0.986632","0.0975242","-0.144621","-0.116267","-0.982632","0.980835","0.114192","-0.157868"
"8","151741147858319","10.7737","1.01434","-0.450226","0","0","0","0.124635","-0.988873","0.0812127","-0.1328","-0.09774","-0.986312","0.983275","0.112144","-0.143504"
"8","151741164673504","10.7737","1.01434","-0.450226","0","0","0","0.124635","-0.988873","0.0812127","-0.1328","-0.09774","-0.986312","0.983275","0.112144","-0.143504"
"8","151741180878338","11.7891","-0.135147","-0.143692","0","0","0","0.118489","-0.990349","0.0719025","-0.120182","-0.0861839","-0.989004","0.985655","0.108545","-0.129234"
"8","151741198242840","12.383","-0.422516","0.0287323","0","0","0","0.112867","-0.990002","0.0846036","-0.111454","-0.0972247","-0.989002","0.987339","0.102196","-0.121313"
"8","151741214447674","12.383","-0.422516","0.0287323","0","0","0","0.112867","-0.990002","0.0846036","-0.111454","-0.0972247","-0.989002","0.987339","0.102196","-0.121313"
"8","151741231262860","12.8045","-0.7099","0.986649","0","0","0","0.102631","-0.990799","0.088228","-0.102909","-0.0987962","-0.989772","0.989382","0.0925016","-0.112102"
"8","151741248566326","12.8045","-0.7099","0.986649","0","0","0","0.0933978","-0.988987","0.114816","-0.0884722","-0.123108","-0.988442","0.99169","0.0821603","-0.0989958"
"8","151741264801678","12.5171","0.248016","-0.718445","0","0","0","0.0890293","-0.993767","0.0670873","-0.0928669","-0.0753433","-0.992824","0.99169","0.0821603","-0.0989958"
"8","151741281586346","12.6512","0.228867","-1.98289","0","0","0","0.0813828","-0.993285","0.0822285","-0.0829647","-0.0889672","-0.992573","0.993224","0.0739563","-0.089648"
"8","151741298371014","12.2297","-0.78653","-4.05199","0","0","0","0.0727607","-0.994839","0.0707191","-0.089653","-0.077144","-0.992981","0.993312","0.0659098","-0.0948033"
"8","151741315155682","11.5209","-0.614105","-6.19771","0","0","0","0.0629965","-0.996928","0.0465417","-0.109251","-0.0532427","-0.992587","0.992016","0.0574448","-0.11227"
"8","151741331940350","9.89243","0.784454","-6.77246","0","0","0","0.055936","-0.998216","0.0208841","-0.137359","-0.0284117","-0.990114","0.988941","0.0525143","-0.138703"
"8","151741348725018","8.91536","2.24048","-5.39307","0","0","0","0.0659177","-0.995934","0.0614082","-0.161516","-0.0713802","-0.984285","0.984666","0.0549634","-0.165565"
"8","151741365509686","8.41724","3.29419","-3.63051","0","0","0","0.0587255","-0.997507","-0.0391223","-0.185956","0.0275731","-0.982171","0.980802","0.0649536","-0.183873"
"8","151741382294354","9.16441","3.08345","-3.26649","0","0","0","0.0792416","-0.99683","-0.00710288","-0.193691","-0.00840693","-0.981027","0.977857","0.0791139","-0.193743"
"8","151741399109539","10.3331","2.4129","-3.38144","0","0","0","0.0745541","-0.993446","-0.0866414","-0.207746","0.0695042","-0.975711","0.975338","0.0907426","-0.201202"
"8","151741415863690","11.0802","1.03351","-2.71091","0","0","0","0.093518","-0.995246","-0.0272091","-0.208498","0.00714612","-0.977997","0.973541","0.0971333","-0.206838"
"8","151741432648358","11.1569","-0.767365","-2.15532","0","0","0","0.0869526","-0.995062","-0.0478648","-0.211565","0.0285061","-0.976948","0.973488","0.0950747","-0.208042"
"8","151741449433026","10.5246","-1.84024","-2.51932","0","0","0","0.0805715","-0.996374","-0.027331","-0.209075","0.00991609","-0.977849","0.974575","0.084501","-0.207518"
"8","151741466217694","9.26021","-1.64865","-1.86794","0","0","0","0.0647439","-0.997395","-0.0317937","-0.210842","0.0174687","-0.977364","0.975374","0.0699818","-0.209162"
"8","151741483002362","8.32144","-0.57579","-1.08244","0","0","0","0.0702239","-0.996376","0.0480022","-0.204743","-0.0614933","-0.976882","0.976293","0.0587723","-0.20832"
"8","151741499787030","7.68922","0.841919","-0.910019","0","0","0","0.0670089","-0.996218","0.0553193","-0.201032","-0.0677874","-0.977237","0.97729","0.0543626","-0.204814"
"8","151741516571698","7.5168","2.01057","-0.929184","0","0","0","0.0745143","-0.994284","0.0764612","-0.195859","-0.0897729","-0.976514","0.977797","0.0577887","-0.201429"
"8","151741533356365","7.82333","2.60449","-0.775909","0","0","0","0.0834577","-0.993609","0.0760001","-0.19163","-0.090845","-0.977254","0.977912","0.0669955","-0.197987"
"8","151741550141033","8.2065","2.45122","-0.526855","0","0","0","0.0989449","-0.990168","0.0988801","-0.183569","-0.115825","-0.97616","0.978015","0.0784347","-0.193224"
"8","151741566925701","8.58966","1.91479","-0.526855","0","0","0","0.106937","-0.989962","0.0924091","-0.177284","-0.110438","-0.977944","0.978333","0.0881961","-0.187314"
"8","151741583710369","8.66629","0.995193","-0.68013","0","0","0","0.11729","-0.985381","0.123562","-0.167017","-0.142221","-0.975643","0.978953","0.0937966","-0.181256"
"8","151741600495037","8.22565","0.382126","-0.641815","0","0","0","0.114091","-0.98771","0.106831","-0.163945","-0.124777","-0.978546","0.97985","0.0941289","-0.176166"
"8","151741617279705","7.63174","0.55455","0.220322","0","0","0","0.117274","-0.982732","0.143123","-0.15439","-0.160407","-0.974902","0.981025","0.0922335","-0.170535"
"8","151741634064373","7.80417","0.63118","0.603485","0","0","0","0.12855","-0.963109","0.236423","-0.133943","-0.253078","-0.958129","0.982616","0.0915008","-0.161535"
"8","151741650849041","8.53218","0.61203","0.56517","0","0","0","0.126627","-0.960702","0.247019","-0.122395","-0.262252","-0.957206","0.98437","0.0909746","-0.150793"
"8","151741668183026","9.41347","0.861084","0.622635","0","0","0","0.113968","-0.978435","0.172268","-0.121477","-0.185821","-0.975046","0.98603","0.0901976","-0.140035"
"8","151741684998211","10.6204","1.26341","0.58432","0","0","0","0.125028","-0.948388","0.291425","-0.095599","-0.303879","-0.947902","0.987537","0.0906547","-0.128658"
"8","151741701233563","11.3868","1.62741","-0.316116","0","0","0","0.129104","-0.926242","0.354129","-0.0764891","-0.365355","-0.92772","0.988677","0.0926852","-0.118016"
"8","151741718018231","11.2143","1.99142","-1.33151","0","0","0","0.127147","-0.942456","0.30921","-0.0767665","-0.320155","-0.94425","0.988909","0.096322","-0.113056"
"8","151741734802899","11.0419","2.58533","-1.06329","0","0","0","0.125264","-0.966552","0.223799","-0.0865561","-0.235363","-0.968046","0.98834","0.101891","-0.113144"
"8","151741751577613","12.4022","3.3325","1.29318","0","0","0","0.142358","-0.929794","0.339438","-0.0652299","-0.350997","-0.934102","0.987664","0.110835","-0.110618"
"8","151741768362281","13.226","2.96849","1.29318","0","0","0","0.14632","-0.933518","0.327316","-0.0497413","-0.337401","-0.940046","0.987986","0.121266","-0.0958029"
"8","151741785146949","13.6474","2.43207","-0.62265","0","0","0","0.148509","-0.933948","0.325094","-0.0361695","-0.333649","-0.942003","0.988249","0.128137","-0.0833303"
"8","151741801931617","13.7241","1.66573","-2.65343","0","0","0","0.151218","-0.929441","0.336559","-0.0324817","-0.344962","-0.938054","0.987967","0.130919","-0.0823545"
"8","151741818716285","13.1685","2.16385","-4.64589","0","0","0","0.153931","-0.926774","0.34263","-0.0407256","-0.35242","-0.934956","0.987242","0.129965","-0.0919916"
"8","151741835500952","11.8657","3.12177","-6.6192","0","0","0","0.167269","-0.902939","0.395882","-0.0481309","-0.408539","-0.911471","0.984736","0.133406","-0.111795"
"8","151741852255103","10.8695","2.43207","-6.88741","0","0","0","0.177314","-0.933634","0.311266","-0.0860753","-0.329778","-0.940126","0.980383","0.139906","-0.138837"
"8","151741869070288","9.29852","1.89563","-6.31267","0","0","0","0.1886","-0.934675","0.301351","-0.111266","-0.32522","-0.93907","0.97573","0.143578","-0.165334"
"8","151741885854956","8.37892","0.477921","-5.16316","0","0","0","0.199935","-0.925633","0.321293","-0.127421","-0.349693","-0.928159","0.971488","0.144633","-0.187861"
"8","151741902609107","8.58966","-0.518311","-3.07491","0","0","0","0.199935","-0.925633","0.321293","-0.127421","-0.349693","-0.928159","0.971488","0.144633","-0.187861"
"8","151741919424292","9.20273","0.0564423","-2.50017","0","0","0","0.204823","-0.911716","0.356121","-0.135937","-0.386805","-0.912087","0.969314","0.138406","-0.203163"
"8","151741936208960","9.73917","1.07182","-2.42352","0","0","0","0.203048","-0.891257","0.405502","-0.138781","-0.436143","-0.889111","0.969284","0.124257","-0.212248"
"8","151741952993628","9.56674","2.81523","-2.40437","0","0","0","0.198874","-0.90679","0.371727","-0.147505","-0.402679","-0.903378","0.968861","0.124826","-0.213839"
"8","151741969747779","9.18356","3.94557","-2.34689","0","0","0","0.198874","-0.90679","0.371727","-0.147505","-0.402679","-0.903378","0.968861","0.124826","-0.213839"
"8","151741987112281","8.85788","3.77315","-2.36606","0","0","0","0.207577","-0.935386","0.286294","-0.160238","-0.321229","-0.933347","0.965006","0.147866","-0.216564"
"8","151742003347632","8.35976","2.96849","-2.30858","0","0","0","0.220606","-0.930562","0.29221","-0.156459","-0.329474","-0.931111","0.962732","0.15969","-0.218279"
"8","151742020132300","7.59343","2.20216","-1.8871","0","0","0","0.224784","-0.936082","0.270598","-0.160545","-0.309488","-0.937252","0.961092","0.167236","-0.219851"
"8","151742036886451","7.07616","1.2251","-1.17824","0","0","0","0.221225","-0.948553","0.226508","-0.169959","-0.266209","-0.948813","0.960299","0.171404","-0.220107"
"8","151742053701636","7.21027","0.592865","-0.833389","0","0","0","0.220194","-0.948518","0.227658","-0.167595","-0.266703","-0.949095","0.960951","0.17083","-0.217693"
"8","151742071005103","7.72754","0.171387","-0.411911","0","0","0","0.214776","-0.950008","0.226618","-0.164657","-0.263933","-0.950383","0.962683","0.166805","-0.213112"
"8","151742087820288","8.30229","0.0947571","-0.296951","0","0","0","0.211537","-0.94315","0.256359","-0.153419","-0.291086","-0.944316","0.965254","0.160428","-0.206272"
"8","151742104574439","8.66629","0.190536","-0.316116","0","0","0","0.198986","-0.951555","0.234408","-0.152813","-0.266393","-0.951674","0.968015","0.15355","-0.198418"
"8","151742121359107","8.8004","0.382126","-0.354431","0","0","0","0.188207","-0.957637","0.217966","-0.150476","-0.247429","-0.95715","0.970534","0.147343","-0.190669"
"8","151742137624976","9.01114","0.535385","0.0670471","0","0","0","0.173754","-0.970076","0.169593","-0.153288","-0.196755","-0.968396","0.972786","0.142266","-0.182888"
"8","151742154440161","9.22188","0.650345","0.50769","0","0","0","0.170205","-0.967414","0.18746","-0.141027","-0.212191","-0.966999","0.975265","0.138151","-0.172547"
"8","151742171194312","9.66252","0.592865","0.392746","0","0","0","0.174154","-0.948146","0.265874","-0.116257","-0.287909","-0.950575","0.977832","0.134637","-0.16037"
"8","151742187978980","10.4863","0.573715","-0.143692","0","0","0","0.162924","-0.959206","0.231041","-0.113749","-0.25087","-0.961314","0.98006","0.13034","-0.149982"
"8","151742204763648","10.7545","1.11014","-0.431061","0","0","0","0.159427","-0.954296","0.252791","-0.103825","-0.270853","-0.957005","0.981735","0.126326","-0.142261"
"8","151742221578833","10.3139","1.66573","-0.258636","0","0","0","0.162453","-0.937038","0.309143","-0.0886609","-0.3259","-0.941238","0.982725","0.125498","-0.136022"
"8","151742238363501","10.3905","1.30173","0.0862122","0","0","0","0.154025","-0.96269","0.222494","-0.0961422","-0.238714","-0.966319","0.983378","0.127446","-0.129323"
"8","151742255697486","12.0765","0.209702","0.50769","0","0","0","0.1497","-0.96562","0.212529","-0.0899273","-0.227358","-0.96965","0.984633","0.126044","-0.120871"
"8","151742272482154","13.0152","-0.748215","1.31233","0","0","0","0.141298","-0.959774","0.242629","-0.0758258","-0.254861","-0.964","0.987059","0.117814","-0.108787"
"8","151742289205786","13.1685","-1.09306","-0.277802","0","0","0","0.125039","-0.962645","0.240168","-0.06631","-0.249635","-0.966067","0.989933","0.10487","-0.095047"
"8","151742306020972","13.4942","-0.460846","-3.59218","0","0","0","0.11767","-0.939521","0.321642","-0.0576537","-0.32981","-0.942285","0.991378","0.0923351","-0.0929756"
"8","151742322805640","12.1531","-0.690735","-6.94489","0","0","0","0.114876","-0.931972","0.343848","-0.0711752","-0.352972","-0.932923","0.990827","0.0826969","-0.106881"
"8","151742339620826","11.655","0.0564423","-7.02151","0","0","0","0.108144","-0.959368","0.26061","-0.111414","-0.272192","-0.955771","0.987872","0.0743252","-0.136323"
"8","151742356405494","10.3331","0.516235","-6.17856","0","0","0","0.11597","-0.950145","0.289439","-0.135396","-0.303807","-0.943064","0.983981","0.0701783","-0.163878"
"8","151742373190161","8.45555","1.41667","-4.1861","0","0","0","0.112214","-0.966386","0.231313","-0.162793","-0.247517","-0.955109","0.980258","0.0695205","-0.185096"
"8","151742389974829","8.14902","2.5087","-3.4006","0","0","0","0.107007","-0.981676","0.157679","-0.182289","-0.175272","-0.967497","0.977405","0.0747863","-0.197704"
"8","151742406759497","10.1032","2.48953","-3.72629","0","0","0","0.112093","-0.98572","0.12566","-0.193108","-0.145654","-0.970306","0.974754","0.0844984","-0.206677"
"8","151742423513648","11.9041","1.83815","-3.45808","0","0","0","0.113348","-0.989514","0.0895192","-0.203656","-0.111326","-0.972692","0.972459","0.092022","-0.214139"
"8","151742440298316","12.5171","0.592865","-2.67259","0","0","0","0.115403","-0.989722","0.0844515","-0.207206","-0.107135","-0.972413","0.971467","0.0947207","-0.21744"
"8","151742457113501","11.8849","-1.03558","-2.5768","0","0","0","0.109143","-0.990969","0.0778951","-0.207762","-0.0993744","-0.973119","0.972071","0.0900253","-0.216732"
"8","151742473898169","9.93074","-1.45708","-2.51932","0","0","0","0.117543","-0.978024","0.172197","-0.198881","-0.19307","-0.960817","0.972949","0.0786909","-0.217205"
"8","151742490621802","8.35976","-1.0739","-1.77214","0","0","0","0.110605","-0.975221","0.191599","-0.200558","-0.210716","-0.956752","0.973418","0.0673947","-0.218895"
"8","151742507498023","6.57803","-0.365051","-0.507706","0","0","0","0.107386","-0.970636","0.215253","-0.198632","-0.233085","-0.951954","0.974173","0.0594701","-0.21783"
"8","151742524221656","5.37106","0.458755","-0.0478973","0","0","0","0.102458","-0.971681","0.212926","-0.195054","-0.229522","-0.953558","0.975426","0.0561674","-0.213046"
"8","151742541036841","5.50517","1.26341","0.0862122","0","0","0","0.110903","-0.960491","0.255258","-0.184077","-0.272251","-0.944455","0.976635","0.0577551","-0.206998"
"8","151742557821509","6.40561","2.02974","0.105362","0","0","0","0.106924","-0.971241","0.212739","-0.180686","-0.229384","-0.956418","0.977711","0.0638248","-0.200016"
"8","151742574606177","7.99576","2.31711","-0.00958252","0","0","0","0.116561","-0.967492","0.22444","-0.169186","-0.24202","-0.955407","0.978667","0.0733913","-0.191896"
"8","151742591421363","9.43263","2.14468","-0.105377","0","0","0","0.130013","-0.956186","0.262306","-0.152819","-0.280715","-0.947547","0.979665","0.0831083","-0.18262"
"8","151742608175513","9.66252","0.956879","-0.603485","0","0","0","0.130463","-0.96251","0.237812","-0.145397","-0.255842","-0.955722","0.980734","0.0901093","-0.173323"
"8","151742624960181","8.97282","0.55455","-0.201172","0","0","0","0.134248","-0.952497","0.273361","-0.134179","-0.29079","-0.947332","0.981821","0.0904981","-0.166843"
"8","151742641744849","8.39807","0.535385","0.488525","0","0","0","0.13544","-0.940782","0.310781","-0.121871","-0.327108","-0.937095","0.983262","0.0890447","-0.158958"
"8","151742658529517","8.1107","0.841919","0.910019","0","0","0","0.13572","-0.926973","0.349717","-0.106597","-0.364596","-0.925044","0.984996","0.0882685","-0.148296"
"8","151742675344702","8.66629","0.976028","0.775909","0","0","0","0.135099","-0.91518","0.379729","-0.0906396","-0.393051","-0.915038","0.986678","0.089202","-0.136052"
"8","151742692129370","9.60506","1.16762","-0.0478973","0","0","0","0.134691","-0.902145","0.40987","-0.0759979","-0.421826","-0.903486","0.987969","0.0905419","-0.125377"
"8","151742708883521","10.448","1.78069","-1.21655","0","0","0","0.137462","-0.881135","0.452444","-0.0633382","-0.463664","-0.883744","0.98848","0.0928241","-0.119546"
"8","151742725668189","11.6167","3.00681","-1.96373","0","0","0","0.138659","-0.907858","0.395686","-0.0701707","-0.407547","-0.910484","0.987851","0.0984811","-0.120215"
"8","151742742452857","13.6474","4.48199","-1.12076","0","0","0","0.151647","-0.899003","0.410849","-0.0643755","-0.423757","-0.903485","0.986336","0.110562","-0.122135"
"8","151742759237525","15.0268","4.30957","-0.182007","0","0","0","0.163891","-0.896814","0.41093","-0.0524497","-0.423895","-0.904191","0.985083","0.126636","-0.11651"
"8","151742776052710","14.1456","3.4283","-1.2932","0","0","0","0.170117","-0.911304","0.374946","-0.0470496","-0.38757","-0.920639","0.9843","0.138975","-0.108809"
"8","151742792196509","13.3409","2.37459","-2.95996","0","0","0","0.174906","-0.921664","0.346329","-0.0500965","-0.359626","-0.931751","0.98331","0.145619","-0.109073"
"8","151742808981177","12.9003","2.75775","-4.32021","0","0","0","0.178599","-0.927742","0.327715","-0.0607719","-0.342836","-0.937428","0.982044","0.147507","-0.117611"
"8","151742825796363","12.4022","3.56241","-6.02528","0","0","0","0.187336","-0.933618","0.305389","-0.0780585","-0.324059","-0.942811","0.979189","0.152785","-0.133585"
"8","151742843130347","10.8695","2.20216","-6.65752","0","0","0","0.197003","-0.942829","0.26882","-0.104267","-0.292787","-0.950476","0.974843","0.159217","-0.155986"
"8","151742859884497","8.47472","1.07182","-6.02528","0","0","0","0.204501","-0.9427","0.263621","-0.127677","-0.292701","-0.947642","0.970504","0.160135","-0.180219"
"8","151742876669165","6.99953","-0.479996","-4.51178","0","0","0","0.212123","-0.932271","0.293043","-0.141608","-0.326026","-0.934695","0.966929","0.156773","-0.201175"
"8","151742893453833","7.34438","-0.384201","-2.76837","0","0","0","0.206384","-0.936223","0.284415","-0.159685","-0.319003","-0.934204","0.965353","0.147388","-0.215338"
"8","151742910269019","8.95367","0.535385","-3.32397","0","0","0","0.20581","-0.928131","0.310187","-0.162651","-0.345007","-0.9244","0.96498","0.139798","-0.221968"
"8","151742927053687","10.2948","1.91479","-3.1707","0","0","0","0.208459","-0.920632","0.330124","-0.165126","-0.365824","-0.915918","0.963991","0.136419","-0.22828"
"8","151742943807837","10.2181","3.94557","-2.97913","0","0","0","0.21094","-0.925338","0.315047","-0.170238","-0.35215","-0.920331","0.962561","0.140501","-0.23181"
"8","151742960592505","9.75832","4.65442","-3.03659","0","0","0","0.215129","-0.940436","0.263247","-0.179808","-0.303094","-0.935844","0.95989","0.153993","-0.234303"
"8","151742977346656","9.08778","3.84978","-2.61511","0","0","0","0.217759","-0.956122","0.195989","-0.193211","-0.239063","-0.951587","0.956687","0.16935","-0.236791"
"8","151742993643042","8.16818","2.60449","-2.02121","0","0","0","0.226833","-0.955743","0.187356","-0.19377","-0.232811","-0.953022","0.954463","0.179873","-0.238003"
"8","151743011007544","7.34438","1.41667","-1.48477","0","0","0","0.227448","-0.95916","0.168164","-0.196711","-0.214385","-0.956736","0.953715","0.184528","-0.237439"
"8","151743027761695","7.21027","0.133072","-1.15909","0","0","0","0.227637","-0.957596","0.17661","-0.192906","-0.222126","-0.955744","0.954447","0.183493","-0.23529"
"8","151743044576880","7.67006","-0.978119","-0.641815","0","0","0","0.215768","-0.962794","0.162702","-0.194775","-0.205717","-0.959032","0.956821","0.175238","-0.231916"
"8","151743061361548","7.89996","-0.939789","-0.143692","0","0","0","0.20603","-0.961095","0.18398","-0.186977","-0.223215","-0.956668","0.960516","0.162702","-0.225692"
"8","151743078115699","8.14902","-0.7099","-0.00958252","0","0","0","0.191183","-0.964675","0.181248","-0.181889","-0.216274","-0.95924","0.964555","0.150424","-0.216811"
"8","151743094961402","8.37892","-0.288422","-0.316116","0","0","0","0.176472","-0.969709","0.168886","-0.177746","-0.200153","-0.963507","0.968124","0.140013","-0.207683"
"8","151743111685035","8.91536","0.171387","-0.258636","0","0","0","0.17381","-0.962388","0.208802","-0.164666","-0.237446","-0.957342","0.970915","0.132013","-0.199743"
"8","151743128469702","9.43263","0.784454","0.143677","0","0","0","0.1644","-0.966685","0.196198","-0.159473","-0.222336","-0.961839","0.973417","0.126838","-0.190712"
"8","151743144674536","9.83495","1.09099","0.296951","0","0","0","0.167966","-0.953315","0.250953","-0.139539","-0.274999","-0.951265","0.975867","0.124763","-0.179216"
"8","151743161489722","10.084","0.880249","-0.105377","0","0","0","0.167966","-0.953315","0.250953","-0.139539","-0.274999","-0.951265","0.975867","0.124763","-0.179216"
"8","151743178274390","10.3714","0.765289","-0.143692","0","0","0","0.143554","-0.980268","0.135895","-0.138917","-0.155917","-0.977953","0.979844","0.121511","-0.158558"
"8","151743195577857","10.2373","0.976028","-0.335281","0","0","0","0.148538","-0.967669","0.203845","-0.121298","-0.222403","-0.96738","0.981439","0.118967","-0.150411"
"8","151743212362525","10.4097","0.956879","-0.0670624","0","0","0","0.138404","-0.979844","0.144046","-0.123598","-0.161398","-0.979119","0.982633","0.11771","-0.143445"
"8","151743229147193","11.5975","0.343811","0.316101","0","0","0","0.146426","-0.957667","0.247858","-0.100691","-0.263686","-0.959339","0.984084","0.115515","-0.135039"
"8","151743245931861","13.0344","-0.556625","0.795059","0","0","0","0.130775","-0.974433","0.182699","-0.101171","-0.196436","-0.975283","0.986237","0.109058","-0.124274"
"8","151743262716529","13.0344","-1.34212","0.737595","0","0","0","0.121343","-0.964144","0.236012","-0.084013","-0.246892","-0.965394","0.989049","0.0973156","-0.110959"
"8","151743279501197","12.747","-1.3996","-0.737595","0","0","0","0.10806","-0.954077","0.279393","-0.0726225","-0.287864","-0.954914","0.991488","0.082898","-0.100394"
"8","151743296285865","13.0152","-0.537476","-3.61134","0","0","0","0.0918004","-0.969498","0.22726","-0.0811667","-0.234749","-0.968661","0.992464","0.0704775","-0.100241"
"8","151743313070533","12.1148","0.209702","-5.96782","0","0","0","0.0898187","-0.965384","0.244882","-0.0947918","-0.253045","-0.962799","0.991437","0.0632646","-0.114239"
"8","151743329855201","10.7545","1.55078","-6.69583","0","0","0","0.0904293","-0.974937","0.203274","-0.123869","-0.213536","-0.96905","0.988169","0.0624512","-0.140075"
"8","151743346731421","9.70084","1.87648","-6.17856","0","0","0","0.101824","-0.972527","0.20934","-0.148284","-0.222921","-0.963493","0.983689","0.067065","-0.166909"
"8","151743363485572","8.72377","2.22133","-3.91788","0","0","0","0.102472","-0.983481","0.149212","-0.174031","-0.165413","-0.970748","0.979394","0.0735069","-0.188107"
"8","151743380270240","9.01114","1.78069","-3.15155","0","0","0","0.108088","-0.985907","0.127688","-0.185264","-0.146166","-0.971758","0.976726","0.0813797","-0.198452"
"8","151743397054908","11.0802","0.669495","-3.8604","0","0","0","0.117699","-0.981638","0.150113","-0.189038","-0.170547","-0.967046","0.974891","0.0854431","-0.20564"
"8","151743413839576","12.1148","0.324646","-3.30481","0","0","0","0.105783","-0.989679","0.0966676","-0.202511","-0.116617","-0.972312","0.97355","0.0832781","-0.212757"
"8","151743430624244","11.7699","0.113907","-2.84502","0","0","0","0.110457","-0.984574","0.135697","-0.20154","-0.155885","-0.966996","0.973232","0.0794635","-0.215649"
"8","151743447408911","10.3905","-0.288422","-2.63428","0","0","0","0.104024","-0.9865","0.126478","-0.20468","-0.14568","-0.967927","0.973286","0.0748","-0.217071"
"8","151743464132544","8.30229","-0.518311","-1.5614","0","0","0","0.0933231","-0.990363","0.102337","-0.20927","-0.120001","-0.970467","0.973394","0.0691508","-0.218452"
"8","151743480398413","7.44017","-0.57579","-0.81424","0","0","0","0.0983394","-0.983084","0.154517","-0.203386","-0.171847","-0.9639","0.974147","0.0633626","-0.216845"
"8","151743497152564","6.99953","-0.422516","-0.431061","0","0","0","0.0891831","-0.986097","0.140212","-0.20152","-0.155726","-0.967026","0.975416","0.0579868","-0.212606"
"8","151743513967749","6.88457","0.0564423","-0.296951","0","0","0","0.0839631","-0.986734","0.138945","-0.196863","-0.153115","-0.968401","0.976829","0.0539569","-0.207107"
"8","151743531332251","7.61259","0.61203","0.124527","0","0","0","0.0936229","-0.97519","0.200598","-0.185153","-0.215023","-0.958897","0.97824","0.0526332","-0.200691"
"8","151743548086402","8.41724","1.24425","0.354416","0","0","0","0.0983538","-0.968619","0.228264","-0.172734","-0.242511","-0.954647","0.980046","0.0544642","-0.191166"
"8","151743564901587","9.14525","1.66573","-0.469391","0","0","0","0.100519","-0.968709","0.226935","-0.161735","-0.240965","-0.956962","0.981701","0.0594896","-0.180896"
"8","151743581655738","9.20273","1.51247","-1.36983","0","0","0","0.108025","-0.963585","0.244609","-0.152636","-0.259207","-0.953684","0.982361","0.0656853","-0.175079"
"8","151743598470923","8.39807","1.11014","-1.13992","0","0","0","0.110808","-0.965504","0.235635","-0.150894","-0.250691","-0.956235","0.98232","0.0704024","-0.173467"
"8","151743615225074","7.17195","1.07182","0.335266","0","0","0","0.119014","-0.953293","0.27761","-0.141247","-0.293009","-0.945619","0.982794","0.0733306","-0.169522"
"8","151743632040259","7.17195","1.45499","0.66095","0","0","0","0.122387","-0.947283","0.296101","-0.129176","-0.31101","-0.941587","0.98404","0.0769889","-0.16043"
"8","151743648824927","7.78502","1.78069","0.737595","0","0","0","0.133507","-0.919042","0.37086","-0.107065","-0.385395","-0.916519","0.985248","0.0826553","-0.14985"
"8","151743665609595","9.1261","1.83815","0.52684","0","0","0","0.130137","-0.938088","0.321022","-0.101353","-0.334665","-0.936871","0.986302","0.0893847","-0.13863"
"8","151743682394263","10.4289","1.62741","0.181992","0","0","0","0.133844","-0.931108","0.339298","-0.0870861","-0.352105","-0.9319","0.987169","0.0951815","-0.128214"
"8","151743699148413","11.3484","1.51247","-0.392746","0","0","0","0.131925","-0.940133","0.314238","-0.0813552","-0.326209","-0.941791","0.987916","0.0986812","-0.11952"
"8","151743715933081","11.7699","1.76152","-1.44646","0","0","0","0.134016","-0.934353","0.330187","-0.0739501","-0.341693","-0.936898","0.988216","0.101142","-0.114888"
"8","151743732748267","11.9232","2.56618","-1.44646","0","0","0","0.138467","-0.931182","0.337235","-0.0720732","-0.349087","-0.934315","0.987741","0.105066","-0.11545"
"8","151743749532935","12.498","2.71944","0.469376","0","0","0","0.148214","-0.913257","0.379466","-0.0615302","-0.391476","-0.918129","0.987039","0.112731","-0.114215"
"8","151743766317603","12.7853","2.56618","0.546005","0","0","0","0.149854","-0.918868","0.365","-0.0512473","-0.375891","-0.925246","0.987379","0.119947","-0.103418"
"8","151743783102271","13.0919","2.85355","-3.07491","0","0","0","0.151967","-0.920478","0.360036","-0.0433189","-0.37012","-0.927973","0.987436","0.125425","-0.09612"
"8","151743799886939","14.6628","4.21379","-7.02151","0","0","0","0.16317","-0.921698","0.351921","-0.0545763","-0.364587","-0.929568","0.985087","0.132471","-0.109792"
"8","151743816671607","15.5824","5.09506","-7.40468","0","0","0","0.182397","-0.928329","0.323939","-0.0810632","-0.342542","-0.935999","0.979878","0.144463","-0.137732"
"8","151743833456275","12.8045","3.25587","-7.04068","0","0","0","0.198698","-0.93657","0.288713","-0.10779","-0.313684","-0.94339","0.974115","0.15633","-0.163281"
"8","151743850271460","9.1261","2.02974","-6.19771","0","0","0","0.200466","-0.955382","0.216932","-0.14336","-0.24765","-0.958184","0.969155","0.160984","-0.186609"
"8","151743866995093","6.52057","0.248016","-4.91411","0","0","0","0.208947","-0.950644","0.229385","-0.160378","-0.264697","-0.950902","0.964686","0.1619","-0.20777"
"8","151743883779761","5.92667","-1.34212","-2.40437","0","0","0","0.20981","-0.94679","0.244066","-0.173297","-0.28168","-0.943729","0.962262","0.155708","-0.223175"
"8","151743900533911","8.05322","-0.403366","-2.04036","0","0","0","0.207663","-0.935643","0.285391","-0.17098","-0.321978","-0.93118","0.963142","0.144575","-0.226839"
"8","151743917318579","10.3714","0.726974","-2.73006","0","0","0","0.199552","-0.938787","0.280816","-0.175803","-0.316231","-0.932251","0.963988","0.136665","-0.228146"
"8","151743934103247","11.1952","2.54701","-3.26649","0","0","0","0.186005","-0.957295","0.221335","-0.19056","-0.256136","-0.947671","0.963893","0.134094","-0.230065"
"8","151743950887915","10.7354","4.23294","-3.4964","0","0","0","0.187023","-0.963911","0.189467","-0.198303","-0.225944","-0.953743","0.962132","0.1408","-0.233403"
"8","151743967642066","9.62421","4.23294","-3.11322","0","0","0","0.195128","-0.967909","0.158357","-0.205197","-0.198176","-0.958447","0.959072","0.154525","-0.237282"
"8","151743984426734","8.18733","3.3325","-2.481","0","0","0","0.208239","-0.965615","0.15564","-0.205984","-0.198856","-0.958137","0.956142","0.167463","-0.240311"
"8","151744001302954","6.9229","2.22133","-1.73383","0","0","0","0.201378","-0.976015","0.0827144","-0.22123","-0.127583","-0.96684","0.954203","0.176401","-0.241616"
"8","151744018118140","6.30983","1.16762","-1.15909","0","0","0","0.206112","-0.974818","0.0851315","-0.219541","-0.130849","-0.966789","0.953583","0.180577","-0.240982"
"8","151744034292456","6.78879","-0.0202026","-0.871704","0","0","0","0.192231","-0.980884","0.0302457","-0.228494","-0.0747106","-0.970674","0.954378","0.179683","-0.238488"
"8","151744051077124","7.76585","-0.441681","-0.526855","0","0","0","0.192363","-0.979185","0.0647639","-0.21794","-0.106977","-0.970082","0.956817","0.172493","-0.233982"
"8","151744068441626","8.60883","-0.422516","-0.296951","0","0","0","0.177419","-0.983036","0.0465098","-0.215484","-0.0849166","-0.972808","0.960255","0.162572","-0.226895"
"8","151744085165259","8.91536","-0.211777","-0.00958252","0","0","0","0.170121","-0.983361","0.0637252","-0.204356","-0.0984677","-0.973932","0.964001","0.152664","-0.217707"
"8","151744101431128","8.89619","-0.211777","0.201157","0","0","0","0.157301","-0.986323","0.0492182","-0.197108","-0.0801929","-0.977096","0.96768","0.143997","-0.207026"
"8","151744118765113","8.95367","-0.460846","0.622635","0","0","0","0.152805","-0.985258","0.076922","-0.182","-0.10456","-0.977723","0.971353","0.135402","-0.195294"
"8","151744135580298","9.20273","-0.614105","1.02496","0","0","0","0.14714","-0.98303","0.109552","-0.164495","-0.133535","-0.977297","0.975342","0.125778","-0.181352"
"8","151744152334449","9.56674","-0.614105","0.450211","0","0","0","0.133918","-0.985639","0.102868","-0.152139","-0.12302","-0.980673","0.979245","0.115679","-0.166429"
"8","151744169180152","9.94991","-0.326736","-0.0862122","0","0","0","0.116129","-0.991555","0.0577243","-0.147836","-0.0747261","-0.986185","0.98217","0.105991","-0.155266"
"8","151744185934302","10.3714","0.861084","-0.335281","0","0","0","0.116241","-0.987167","0.109494","-0.134401","-0.124861","-0.983029","0.984086","0.0995519","-0.14719"
"8","151744202657935","10.6971","1.5891","-0.450226","0","0","0","0.11192","-0.990099","0.0847257","-0.130724","-0.09919","-0.986444","0.985081","0.0993274","-0.140531"
"8","151744219503638","11.3868","1.34004","-0.507706","0","0","0","0.114459","-0.98966","0.0864378","-0.124445","-0.100608","-0.987113","0.985603","0.102227","-0.134674"
"8","151744236257788","13.1302","0.228867","0.162842","0","0","0","0.115069","-0.988403","0.0990919","-0.116678","-0.112512","-0.986776","0.986481","0.101985","-0.128272"
"8","151744253072974","13.6666","-0.882324","1.31233","0","0","0","0.108186","-0.987439","0.115153","-0.104692","-0.126505","-0.986426","0.988603","0.0946615","-0.117063"
"8","151744269857642","12.5746","-1.38043","0.852539","0","0","0","0.0897821","-0.993509","0.0698446","-0.0950992","-0.0783592","-0.992379","0.991411","0.0824557","-0.101517"
"8","151744286611792","11.9041","-0.57579","-2.13615","0","0","0","0.08636","-0.978812","0.185659","-0.0780339","-0.192429","-0.978203","0.993203","0.0699899","-0.0929986"
"8","151744303396460","11.5209","-0.460846","-4.03282","0","0","0","0.0703674","-0.99466","0.0755024","-0.0946787","-0.082008","-0.992124","0.993018","0.0626647","-0.0999438"
"8","151744320181128","9.70084","0.305496","-7.76869","0","0","0","0.0708208","-0.989852","0.123199","-0.110044","-0.130509","-0.985321","0.9914","0.0562239","-0.11817"
"8","151744336996314","10.0265","1.78069","-6.67667","0","0","0","0.0767811","-0.987609","0.136869","-0.141051","-0.146653","-0.97908","0.98702","0.0558693","-0.150563"
"8","151744353750464","10.563","2.47038","-5.45055","0","0","0","0.0849617","-0.988872","0.122123","-0.166781","-0.134951","-0.976715","0.982327","0.0626156","-0.176391"
"8","151744370535132","10.4863","2.77692","-4.05199","0","0","0","0.0898349","-0.992445","0.0835628","-0.185811","-0.0991299","-0.977572","0.97847","0.0722932","-0.193313"
"8","151744387319800","11.0994","2.45122","-4.28189","0","0","0","0.0873863","-0.996047","0.0159434","-0.201155","-0.0333184","-0.978992","0.975654","0.0823434","-0.203272"
"8","151744404134986","12.1531","1.39752","-4.20525","0","0","0","0.083185","-0.995872","-0.0363079","-0.215418","0.0176028","-0.976363","0.972972","0.0890402","-0.213065"
"8","151744420919654","12.383","-0.154312","-2.46185","0","0","0","0.0990426","-0.994468","0.0349966","-0.2148","-0.0557066","-0.975068","0.971623","0.0890561","-0.219129"
"8","151744437734839","11.2335","-1.34212","-1.38898","0","0","0","0.0906903","-0.995353","0.0323553","-0.213123","-0.0511343","-0.975686","0.972807","0.0815897","-0.21677"
"8","151744454458472","9.93074","-2.05098","-1.63805","0","0","0","0.0897793","-0.992089","0.0877412","-0.204099","-0.104554","-0.973351","0.974825","0.0694788","-0.211871"
"8","151744471273658","8.49387","-1.84024","-1.23572","0","0","0","0.0747228","-0.99359","0.0848236","-0.20322","-0.098449","-0.974171","0.976278","0.0555549","-0.209274"
"8","151744487997290","7.91913","-0.978119","-1.08244","0","0","0","0.0691075","-0.990984","0.114786","-0.199621","-0.126471","-0.971677","0.977433","0.0442364","-0.206562"
"8","151744504842994","7.49763","0.286331","-1.23572","0","0","0","0.0689266","-0.98697","0.145397","-0.195642","-0.156286","-0.968142","0.97825","0.0382851","-0.203865"
"8","151744521627661","7.44017","1.66573","-1.38898","0","0","0","0.0793554","-0.978049","0.192673","-0.190476","-0.204598","-0.960135","0.978479","0.0394924","-0.202531"
"8","151744538381812","7.5168","2.70029","-1.13992","0","0","0","0.0844393","-0.980529","0.177295","-0.18921","-0.190472","-0.963286","0.978299","0.0477932","-0.201609"
"8","151744555196997","7.61259","3.23671","-0.967499","0","0","0","0.0899249","-0.986296","0.138323","-0.187897","-0.153193","-0.970168","0.978064","0.0612518","-0.199098"
"8","151744571981665","7.76585","3.06429","-1.23572","0","0","0","0.120023","-0.967815","0.221197","-0.172869","-0.239778","-0.955313","0.977605","0.0764219","-0.196084"
"8","151744588766333","7.80417","2.10637","-1.23572","0","0","0","0.128673","-0.971252","0.200281","-0.170745","-0.220642","-0.960293","0.976877","0.089367","-0.194227"
"8","151744605551001","7.59343","0.74614","-0.411911","0","0","0","0.135374","-0.969856","0.202615","-0.16664","-0.223871","-0.960267","0.976681","0.0962313","-0.191923"
"8","151744622335669","7.93828","0.477921","0.105362","0","0","0","0.136859","-0.965719","0.22058","-0.15795","-0.241101","-0.957561","0.977917","0.0962101","-0.185532"
"8","151744639120337","8.37892","0.650345","0.239471","0","0","0","0.130318","-0.970683","0.20197","-0.152215","-0.22088","-0.96335","0.979718","0.0947987","-0.176537"
"8","151744655874488","9.20273","0.976028","0.181992","0","0","0","0.135395","-0.957292","0.255462","-0.135529","-0.273307","-0.952332","0.981479","0.0943189","-0.166745"
"8","151744672689673","10.0648","1.11014","-0.143692","0","0","0","0.13756","-0.948115","0.286626","-0.121707","-0.303364","-0.94507","0.982987","0.0951197","-0.157124"
"8","151744689504859","10.7737","1.09099","-0.316116","0","0","0","0.140283","-0.935518","0.324233","-0.108252","-0.34","-0.934174","0.984176","0.09595","-0.148968"
"8","151744706259009","10.8312","1.03351","-1.00581","0","0","0","0.134024","-0.948297","0.287698","-0.107013","-0.302469","-0.947133","0.985183","0.0961507","-0.142018"
"8","151744723043677","10.8503","1.43584","-1.96373","0","0","0","0.13713","-0.937073","0.321075","-0.100463","-0.335623","-0.936624","0.985445","0.0961829","-0.140165"
"8","151744739217994","10.9845","2.81523","-1.25487","0","0","0","0.134781","-0.954543","0.265859","-0.109072","-0.280969","-0.953499","0.984854","0.0995154","-0.141983"
"8","151744756033179","12.383","3.83061","1.82961","0","0","0","0.138791","-0.965965","0.218287","-0.106219","-0.233669","-0.966497","0.984609","0.110955","-0.135035"
"8","151744772817847","12.7662","3.04514","1.29318","0","0","0","0.149791","-0.956082","0.251933","-0.0794419","-0.265622","-0.960799","0.985521","0.123905","-0.115741"
"8","151744789602515","12.6129","2.22133","-1.13992","0","0","0","0.152993","-0.957078","0.246161","-0.066216","-0.258462","-0.963749","0.986006","0.131147","-0.102917"
"8","151744806905982","12.1914","2.08722","-4.37767","0","0","0","0.162667","-0.921493","0.352689","-0.0496425","-0.364641","-0.929824","0.985431","0.133743","-0.10506"
"8","151744823171851","12.1531","2.87271","-7.07899","0","0","0","0.163062","-0.957275","0.23882","-0.0858187","-0.254904","-0.963151","0.982876","0.136558","-0.123717"
"8","151744839926001","12.1914","2.56618","-8.42007","0","0","0","0.175111","-0.956772","0.232214","-0.113989","-0.253975","-0.96047","0.977928","0.141719","-0.153535"
"8","151744857290503","10.9845","2.52785","-7.96028","0","0","0","0.187284","-0.953634","0.235598","-0.143049","-0.263762","-0.953922","0.971834","0.144952","-0.185815"
"8","151744873525855","9.06862","0.995193","-6.19771","0","0","0","0.186088","-0.968184","0.167303","-0.182715","-0.201407","-0.962315","0.965394","0.148507","-0.214381"
"8","151744890310523","8.41724","-0.269257","-4.26273","0","0","0","0.200747","-0.955508","0.216112","-0.194484","-0.255084","-0.947158","0.960144","0.148109","-0.237038"
"8","151744907644507","8.68546","-0.250092","-3.01744","0","0","0","0.194709","-0.957456","0.212992","-0.20705","-0.252375","-0.945218","0.958759","0.139942","-0.247381"
"8","151744923849341","9.3943","0.784454","-2.02121","0","0","0","0.180657","-0.967156","0.178807","-0.218724","-0.216752","-0.951409","0.958917","0.132769","-0.250698"
"8","151744940634009","9.75832","2.54701","-1.6572","0","0","0","0.187617","-0.957877","0.217422","-0.209177","-0.255238","-0.94398","0.959711","0.131627","-0.248253"
"8","151744957418677","9.79663","3.84978","-2.2511","0","0","0","0.178367","-0.973111","0.145743","-0.217491","-0.183445","-0.958669","0.959626","0.139297","-0.244364"
"8","151744974233863","9.73917","3.52408","-2.82585","0","0","0","0.193109","-0.968556","0.156872","-0.211832","-0.197266","-0.95719","0.958037","0.151612","-0.243265"
"8","151744990988013","9.41347","2.47038","-2.73006","0","0","0","0.185494","-0.97928","0.0812508","-0.226696","-0.123102","-0.966155","0.956138","0.160797","-0.244834"
"8","151745007772681","8.58966","1.4933","-2.05952","0","0","0","0.191999","-0.977099","0.0917315","-0.225179","-0.134838","-0.964942","0.955212","0.164611","-0.245911"
"8","151745024557349","7.78502","0.803604","-1.63805","0","0","0","0.18399","-0.981192","0.0584029","-0.231049","-0.100925","-0.967693","0.955387","0.164552","-0.245272"
"8","151745041342017","7.32521","-0.173462","-0.967499","0","0","0","0.184105","-0.979907","0.0767329","-0.226116","-0.118197","-0.966903","0.956544","0.160661","-0.243333"
"8","151745058157202","7.38269","-0.57579","-0.316116","0","0","0","0.170157","-0.983975","0.0532934","-0.226652","-0.0917119","-0.969648","0.958997","0.152913","-0.238625"
"8","151745074911353","7.8808","-0.57579","0.0862122","0","0","0","0.170157","-0.983975","0.0532934","-0.226652","-0.0917119","-0.969648","0.958997","0.152913","-0.238625"
"8","151745091696021","8.39807","-0.230942","-0.162857","0","0","0","0.157955","-0.986409","0.0452624","-0.22094","-0.0799808","-0.972002","0.962411","0.143532","-0.230571"
"8","151745109060523","8.70461","0.267181","-0.373596","0","0","0","0.140451","-0.988886","0.0487689","-0.202963","-0.0769679","-0.976157","0.969061","0.127204","-0.211517"
"8","151745125265357","8.97282","0.784454","-0.0862122","0","0","0","0.136644","-0.989105","0.0547745","-0.194221","-0.0809695","-0.97761","0.971394","0.122947","-0.203169"
"8","151745142080542","9.14525","0.937714","0.431061","0","0","0","0.142316","-0.98488","0.098783","-0.177947","-0.12363","-0.976243","0.973695","0.121357","-0.192851"
"8","151745158956763","9.52841","0.765289","0.354416","0","0","0","0.125337","-0.991976","0.0165797","-0.176739","-0.038769","-0.983494","0.976245","0.120338","-0.18018"
"8","151745175649878","10.1606","0.420441","-0.239487","0","0","0","0.12942","-0.989856","0.0586171","-0.160025","-0.0791889","-0.983931","0.978592","0.11796","-0.168651"
"8","151745192434546","10.4672","0.535385","-0.316116","0","0","0","0.124423","-0.990471","0.0590486","-0.152113","-0.0778483","-0.985292","0.9805","0.11361","-0.16035"
"8","151745209219214","10.1606","1.07182","-0.220322","0","0","0","0.119138","-0.991656","0.049244","-0.145938","-0.0665484","-0.987053","0.982094","0.110409","-0.152648"
"8","151745225973365","9.52841","1.47415","0.335266","0","0","0","0.119823","-0.991256","0.0552678","-0.137333","-0.071683","-0.987928","0.983251","0.110786","-0.144721"
"8","151745242758033","9.72","1.14845","0.6418","0","0","0","0.129201","-0.984558","0.118122","-0.119427","-0.133703","-0.983799","0.984401","0.113001","-0.134857"
"8","151745259542701","11.2335","0.190536","1.25487","0","0","0","0.12587","-0.986153","0.10798","-0.109337","-0.121972","-0.986493","0.986003","0.112363","-0.123175"
"8","151745276357886","12.1914","-0.518311","2.23193","0","0","0","0.117095","-0.987128","0.108936","-0.0944741","-0.120265","-0.988236","0.988617","0.105426","-0.10734"
"8","151745293142554","11.9998","-0.63327","1.40813","0","0","0","0.101604","-0.992609","0.0663592","-0.080823","-0.0747201","-0.993924","0.991536","0.0956229","-0.0878175"
"8","151745309896704","12.2297","0.133072","-2.95996","0","0","0","0.0936463","-0.991211","0.0934364","-0.0696284","-0.100139","-0.992534","0.993168","0.0864414","-0.0783941"
"8","151745326681372","10.9078","-0.614105","-6.82994","0","0","0","0.089745","-0.990353","0.10558","-0.0839581","-0.113153","-0.990024","0.99242","0.0799854","-0.0933031"
"8","151745343496558","10.5246","0.55455","-8.43924","0","0","0","0.0862532","-0.990782","0.104454","-0.119093","-0.114347","-0.986277","0.98913","0.0726298","-0.127858"
"8","151745360281226","11.7699","1.55078","-7.48132","0","0","0","0.0792596","-0.996211","0.035789","-0.160487","-0.0481857","-0.985861","0.98385","0.0723952","-0.163698"
"8","151745377065894","11.54","1.5891","-6.12108","0","0","0","0.0759678","-0.997101","-0.00432716","-0.191559","-0.0103355","-0.981426","0.978537","0.0753858","-0.191789"
"8","151745393850562","10.6588","2.31711","-4.55009","0","0","0","0.0812343","-0.996695","-0.000354545","-0.209124","-0.0166966","-0.977747","0.974509","0.0795007","-0.209789"
"8","151745410635230","10.9461","2.56618","-4.60757","0","0","0","0.080299","-0.995936","-0.0407894","-0.223901","0.0218536","-0.974367","0.971298","0.0873735","-0.221236"
"8","151745427419898","11.4251","1.30173","-3.36229","0","0","0","0.087766","-0.995415","-0.0380389","-0.233146","0.0165991","-0.9723","0.968473","0.0942035","-0.23062"
"8","151745444204566","11.0228","0.152222","-1.67636","0","0","0","0.080775","-0.994513","-0.0664802","-0.237412","0.0455815","-0.970339","0.968045","0.0941623","-0.232427"
"8","151745460989234","10.563","-1.28465","-1.79131","0","0","0","0.078737","-0.995551","-0.0517546","-0.230862","0.0322951","-0.97245","0.969795","0.088516","-0.227292"
"8","151745477773902","10.3139","-1.53371","-1.8871","0","0","0","0.0718133","-0.996937","-0.0309874","-0.226079","0.0139893","-0.974009","0.971458","0.0769523","-0.224381"
"8","151745494528052","9.73917","-1.51454","-1.52309","0","0","0","0.0824135","-0.994095","0.0705942","-0.216184","-0.0869809","-0.97247","0.972868","0.0648833","-0.222076"
"8","151745511343238","8.89619","-1.28465","-1.35066","0","0","0","0.0665365","-0.996456","0.0514613","-0.215246","-0.0646956","-0.974414","0.97429","0.0537572","-0.218788"
"8","151745528127906","7.95744","-0.65242","-1.36983","0","0","0","0.0642589","-0.9945","0.0827036","-0.210964","-0.0945395","-0.972911","0.975379","0.0450708","-0.215879"
"8","151745544882056","7.38269","0.248016","-1.00581","0","0","0","0.0769695","-0.983284","0.165007","-0.20372","-0.177517","-0.962801","0.975999","0.0404911","-0.213978"
"8","151745562277076","7.32521","1.28256","-0.62265","0","0","0","0.0795165","-0.980908","0.177471","-0.199102","-0.190076","-0.961368","0.976747","0.0411098","-0.210415"
"8","151745579000708","7.57426","2.14468","-0.69928","0","0","0","0.0912291","-0.973451","0.20993","-0.189914","-0.223948","-0.955918","0.977553","0.0473388","-0.205302"
"8","151745595846411","7.91913","2.39375","-0.967499","0","0","0","0.0949408","-0.978756","0.181721","-0.185845","-0.196763","-0.962676","0.977982","0.0576252","-0.200578"
"8","151745612600562","7.91913","1.95311","-0.948334","0","0","0","0.113524","-0.966487","0.23025","-0.174702","-0.247556","-0.952993","0.978055","0.0679626","-0.196951"
"8","151745629415747","7.76585","1.47415","-0.603485","0","0","0","0.125535","-0.956842","0.262095","-0.165126","-0.280652","-0.945499","0.978251","0.075414","-0.193232"
"8","151745645620581","7.57426","1.24425","-0.220322","0","0","0","0.128727","-0.956451","0.261973","-0.158567","-0.280624","-0.946629","0.978921","0.0803168","-0.187785"
"8","151745662374732","7.8808","1.14845","0.0670471","0","0","0","0.124312","-0.966169","0.225973","-0.155385","-0.243886","-0.957275","0.980001","0.0838882","-0.180447"
"8","151745679708716","8.55135","1.09099","-0.0287476","0","0","0","0.131164","-0.954604","0.267444","-0.140797","-0.284978","-0.948137","0.981311","0.0867062","-0.171785"
"8","151745696523902","9.37515","1.03351","-0.182007","0","0","0","0.128618","-0.958864","0.253056","-0.13446","-0.269681","-0.953516","0.982536","0.0886137","-0.163615"
"8","151745713278052","10.2948","1.14845","-0.373596","0","0","0","0.138829","-0.929477","0.341758","-0.113739","-0.357781","-0.926853","0.983763","0.0898027","-0.155388"
"8","151745729513404","11.0419","1.66573","-1.17824","0","0","0","0.138092","-0.929479","0.342052","-0.106943","-0.357335","-0.927833","0.984629","0.0915467","-0.148746"
"8","151745746847388","11.8657","2.45122","-1.08244","0","0","0","0.141088","-0.928752","0.342803","-0.103095","-0.358168","-0.927948","0.984614","0.0955812","-0.146283"
"8","151745763601538","12.3064","3.25587","-0.296951","0","0","0","0.144912","-0.935907","0.32106","-0.0991744","-0.33659","-0.936414","0.984462","0.103857","-0.141594"
"8","151745780416724","13.0152","3.69652","-0.56517","0","0","0","0.148693","-0.949217","0.277266","-0.0948216","-0.292777","-0.951467","0.984327","0.115186","-0.13354"
"8","151745797201392","14.1647","4.19463","-3.18987","0","0","0","0.163186","-0.931071","0.32631","-0.0783775","-0.341932","-0.93645","0.983477","0.12724","-0.128773"
"8","151745813986060","16.1189","4.46284","-6.23602","0","0","0","0.177658","-0.931568","0.317205","-0.0850492","-0.335661","-0.938136","0.98041","0.139689","-0.138862"
"8","151745830770728","17.0002","3.98389","-5.6996","0","0","0","0.189017","-0.942725","0.274849","-0.107734","-0.298113","-0.948431","0.976046","0.149659","-0.157912"
"8","151745847555396","14.3371","3.81146","-4.87579","0","0","0","0.19065","-0.959631","0.206786","-0.132626","-0.233898","-0.963173","0.972658","0.156204","-0.171864"
"8","151745864340064","9.94991","2.91103","-4.10945","0","0","0","0.206054","-0.946227","0.249392","-0.132243","-0.27945","-0.95101","0.969564","0.162979","-0.182713"
"8","151745881155249","6.04161","1.76152","-3.91788","0","0","0","0.20948","-0.95363","0.216118","-0.14839","-0.249466","-0.956947","0.966488","0.168392","-0.193768"
"8","151745897939917","4.20241","-1.53371","-3.38144","0","0","0","0.208543","-0.95866","0.193599","-0.1656","-0.229706","-0.959068","0.963891","0.167947","-0.206658"
"8","151745914755103","6.02245","-2.51077","-2.90248","0","0","0","0.197649","-0.961459","0.191132","-0.181105","-0.227437","-0.956804","0.963398","0.154496","-0.219078"
"8","151745931539771","8.5705","-1.18886","-2.481","0","0","0","0.18152","-0.96479","0.190345","-0.192194","-0.224634","-0.955301","0.964423","0.136823","-0.226203"
"8","151745948324439","11.2143","1.30173","-3.59218","0","0","0","0.188419","-0.942721","0.275272","-0.181886","-0.308941","-0.933527","0.965099","0.125826","-0.229678"
"8","151745965048072","12.1914","3.60072","-4.28189","0","0","0","0.183227","-0.954172","0.236611","-0.194067","-0.271057","-0.942797","0.963725","0.126827","-0.234838"
"8","151745981893775","10.9653","4.90349","-4.07114","0","0","0","0.193535","-0.955424","0.222955","-0.199807","-0.260873","-0.944469","0.960532","0.13824","-0.241389"
"8","151745998678443","9.26021","4.38622","-3.11322","0","0","0","0.200626","-0.964445","0.172035","-0.211302","-0.214072","-0.95369","0.956609","0.154983","-0.246737"
"8","151746015463111","7.93828","2.68112","-1.8871","0","0","0","0.208197","-0.967567","0.143067","-0.21675","-0.188277","-0.957899","0.953768","0.168422","-0.248919"
"8","151746032247779","6.55888","0.0564423","-0.277802","0","0","0","0.209762","-0.969323","0.128116","-0.217124","-0.173939","-0.960522","0.95334","0.173664","-0.246948"
"8","151746049032447","6.96121","-1.0739","-0.0287476","0","0","0","0.198292","-0.973818","0.111167","-0.215018","-0.153876","-0.964412","0.956268","0.167332","-0.2399"
"8","151746065817115","8.14902","-1.6295","-0.220322","0","0","0","0.179826","-0.979363","0.0922521","-0.212387","-0.130223","-0.96847","0.960497","0.154563","-0.231422"
"8","151746082021949","8.62798","-1.13138","-0.56517","0","0","0","0.179202","-0.968945","0.170389","-0.192602","-0.204393","-0.959754","0.964775","0.139172","-0.223249"
"8","151746099386451","8.74294","-0.173462","-0.546021","0","0","0","0.170604","-0.965541","0.19653","-0.183605","-0.227112","-0.956404","0.968082","0.127082","-0.216024"
"8","151746116140601","8.28313","0.650345","-0.316116","0","0","0","0.158162","-0.972143","0.172984","-0.1819","-0.200877","-0.96258","0.970514","0.120778","-0.208604"
"8","151746132375952","7.93828","1.01434","-0.162857","0","0","0","0.146042","-0.981456","0.124162","-0.18194","-0.150013","-0.971799","0.972404","0.119334","-0.200474"
"8","151746149740454","8.28313","0.765289","-0.258636","0","0","0","0.143334","-0.982939","0.115266","-0.175165","-0.139826","-0.974559","0.97405","0.119497","-0.192219"
"8","151746166494605","9.16441","0.382126","-0.469391","0","0","0","0.136032","-0.986662","0.089402","-0.171412","-0.11232","-0.978776","0.975763","0.11782","-0.184405"
"8","151746183279273","10.4289","0.573715","-0.75676","0","0","0","0.141728","-0.977755","0.154621","-0.155983","-0.176304","-0.971898","0.977539","0.113627","-0.1775"
"8","151746200094458","10.812","1.11014","-0.948334","0","0","0","0.135854","-0.980237","0.143799","-0.152194","-0.16407","-0.974637","0.978969","0.110523","-0.171475"
"8","151746216848609","11.1186","1.41667","-0.833389","0","0","0","0.134139","-0.981244","0.138443","-0.147856","-0.157959","-0.976313","0.97987","0.110493","-0.166271"
"8","151746233663794","11.4059","1.35919","-0.68013","0","0","0","0.135675","-0.979439","0.149302","-0.140525","-0.168196","-0.975686","0.980737","0.111395","-0.160455"
"8","151746250417945","11.2718","1.39752","-0.182007","0","0","0","0.129601","-0.985503","0.109485","-0.139253","-0.127412","-0.982026","0.981739","0.112026","-0.153747"
"8","151746267172095","10.9845","0.573715","0.929169","0","0","0","0.131486","-0.982432","0.132434","-0.126791","-0.149163","-0.98065","0.983176","0.11215","-0.144177"
"8","151746284048316","11.1569","-0.882324","1.52307","0","0","0","0.120312","-0.987954","0.0973278","-0.117569","-0.11153","-0.986782","0.98575","0.107279","-0.129571"
"8","151746300771949","11.9807","-2.03181","0.488525","0","0","0","0.11366","-0.978267","0.173423","-0.0951326","-0.184468","-0.978224","0.988955","0.0946863","-0.114032"
"8","151746316976783","13.4367","-1.09306","-3.72629","0","0","0","0.0916288","-0.98623","0.137673","-0.0937556","-0.146185","-0.984804","0.99137","0.0773288","-0.105859"
"8","151746334341285","14.6628","-0.269257","-6.15939","0","0","0","0.0861349","-0.981978","0.168223","-0.106876","-0.176984","-0.978394","0.990534","0.0662949","-0.120194"
"8","151746350576636","13.6283","0.420441","-8.40091","0","0","0","0.0861349","-0.981978","0.168223","-0.106876","-0.176984","-0.978394","0.990534","0.0662949","-0.120194"
"8","151746367361304","11.7891","1.35919","-8.19017","0","0","0","0.0791757","-0.990533","0.112144","-0.169656","-0.124246","-0.97764","0.982318","0.0583794","-0.177887"
"8","151746384634253","9.22188","2.52785","-5.77623","0","0","0","0.0757234","-0.995516","0.0566932","-0.201748","-0.0709767","-0.976862","0.976506","0.0625337","-0.206217"
"8","151746401449439","7.55511","3.77315","-3.63051","0","0","0","0.0781233","-0.996866","0.0124218","-0.221673","-0.0295175","-0.974674","0.971987","0.0733912","-0.223284"
"8","151746417684790","8.16818","4.09883","-3.18987","0","0","0","0.0907939","-0.995837","-0.00803766","-0.231572","-0.0132621","-0.972727","0.968572","0.090179","-0.231812"
"8","151746434469458","10.0648","3.00681","-3.38144","0","0","0","0.0958173","-0.993898","-0.0546344","-0.241667","0.0300169","-0.969895","0.965617","0.106136","-0.237316"
"8","151746451254126","11.2718","1.72321","-3.07491","0","0","0","0.0797354","-0.985493","-0.149821","-0.254587","0.125182","-0.958913","0.963757","0.114602","-0.240912"
"8","151746468588111","11.1569","-0.824844","-2.74922","0","0","0","0.0781365","-0.985583","-0.150066","-0.255193","0.125739","-0.958679","0.963728","0.113204","-0.241689"
"8","151746485342261","10.1415","-1.70613","-2.65343","0","0","0","0.0897791","-0.994226","-0.0587736","-0.246693","0.0349741","-0.968462","0.964926","0.101447","-0.242129"
"8","151746501608130","8.85788","-1.59117","-2.02121","0","0","0","0.0688686","-0.99413","-0.083444","-0.248713","0.0638925","-0.966468","0.966126","0.0873128","-0.242853"
"8","151746519003150","7.82333","-0.863159","-1.46562","0","0","0","0.0590145","-0.995418","-0.0752319","-0.246632","0.0584881","-0.967343","0.967311","0.0756418","-0.24205"
"8","151746535787818","7.05699","-0.154312","-1.02498","0","0","0","0.0659841","-0.997644","-0.018796","-0.240383","0.00238896","-0.970675","0.968433","0.0685674","-0.239659"
"8","151746551992652","6.61636","0.49707","-0.967499","0","0","0","0.0648685","-0.997832","-0.0111056","-0.23647","-0.00455881","-0.971628","0.969471","0.0656542","-0.236253"
"8","151746568807837","6.73131","1.09099","-0.795074","0","0","0","0.0654183","-0.997779","-0.012574","-0.233","-0.00302134","-0.972472","0.970274","0.0665472","-0.232681"
"8","151746586141822","7.38269","1.55078","-0.68013","0","0","0","0.0728648","-0.99734","0.00202544","-0.227174","-0.0185745","-0.973677","0.971125","0.0704867","-0.227923"
"8","151746602895972","8.03407","2.02974","-0.69928","0","0","0","0.0810676","-0.996665","0.00929244","-0.220608","-0.0270343","-0.974988","0.971988","0.0769899","-0.222064"
"8","151746619161841","8.12987","2.0489","-0.75676","0","0","0","0.0881125","-0.996096","0.00528596","-0.214649","-0.0241688","-0.976392","0.972709","0.0848978","-0.21594"
"8","151746636465308","8.26398","1.91479","-0.603485","0","0","0","0.0923628","-0.995674","-0.0101493","-0.210099","-0.00952429","-0.977634","0.973307","0.0924293","-0.21007"
"8","151746653219458","8.37892","1.70406","-0.124527","0","0","0","0.0920975","-0.994818","-0.0430806","-0.206308","0.0232619","-0.978211","0.974143","0.0989786","-0.203097"
"8","151746669515845","8.60883","1.47415","0.201157","0","0","0","0.101901","-0.994592","-0.0200516","-0.194645","-0.000167292","-0.980874","0.975566","0.103855","-0.19361"
"8","151746686788794","9.0303","1.32088","0.258636","0","0","0","0.10275","-0.994146","-0.033414","-0.185208","0.0138837","-0.982601","0.977313","0.107151","-0.182697"
"8","151746703573462","9.54758","1.03351","0.316101","0","0","0","0.0998348","-0.993115","-0.0612873","-0.177062","0.04288","-0.983265","0.979123","0.109016","-0.171562"
"8","151746719839331","9.8158","0.516235","0.239471","0","0","0","0.122326","-0.989332","0.0791049","-0.149808","-0.0971956","-0.983926","0.981119","0.108509","-0.160099"
"8","151746736593482","9.87326","0.209702","-0.546021","0","0","0","0.110414","-0.993474","0.0285898","-0.146167","-0.0446843","-0.98825","0.983079","0.104938","-0.150147"
"8","151746753927466","13.7432","4.0222","0.833374","0","0","0","0.11191","-0.993242","0.0307654","-0.140181","-0.0464296","-0.989037","0.983781","0.106371","-0.14443"
"8","151746770681617","13.7432","4.0222","0.833374","0","0","0","0.11191","-0.993242","0.0307654","-0.140181","-0.0464296","-0.989037","0.983781","0.106371","-0.14443"
"8","151746787496802","14.1456","4.13715","1.5614","0","0","0","0.112353","-0.991985","-0.0578079","-0.138573","0.041966","-0.989463","0.983958","0.119179","-0.132748"
"8","151746803732154","13.9348","4.00304","0.948334","0","0","0","0.129183","-0.9909","-0.0377959","-0.118002","0.022483","-0.992759","0.984575","0.132707","-0.114024"
"8","151746821066138","13.4367","3.29419","-2.61511","0","0","0","0.136713","-0.988126","-0.0701199","-0.112304","0.0548682","-0.992158","0.984224","0.143515","-0.103469"
"8","151746837850806","13.59","3.23671","-5.12485","0","0","0","0.150022","-0.988652","-0.00772023","-0.112178","-0.00926316","-0.993645","0.982298","0.149934","-0.112295"
"8","151746854635474","14.0881","4.29042","-6.56172","0","0","0","0.143266","-0.984113","-0.104866","-0.145868","0.0838045","-0.985748","0.978876","0.156521","-0.131544"
"8","151746871450660","12.7853","3.04514","-7.17479","0","0","0","0.154502","-0.984832","-0.0789591","-0.165719","0.0529543","-0.98475","0.973995","0.165231","-0.155024"
"8","151746887686011","8.74294","1.1293","-6.33182","0","0","0","0.167808","-0.985702","-0.0152035","-0.179999","-0.0154733","-0.983545","0.969247","0.167784","-0.180022"
"8","151746905050513","7.49763","-0.614105","-4.83748","0","0","0","0.155122","-0.98608","-0.0598688","-0.209189","0.0264411","-0.977518","0.965493","0.164159","-0.202175"
"8","151746921835181","7.42101","-1.84024","-2.8067","0","0","0","0.166101","-0.98514","0.0437077","-0.207132","-0.0781898","-0.975183","0.964109","0.152926","-0.217042"
"8","151746938619849","8.14902","-0.997269","-2.23195","0","0","0","0.138136","-0.990292","-0.0155278","-0.222416","-0.0157395","-0.974825","0.965116","0.138112","-0.222431"
"8","151746955404517","9.31767","0.401291","-2.73006","0","0","0","0.152423","-0.983726","0.0951293","-0.209227","-0.126191","-0.969691","0.965915","0.1279","-0.225057"
"8","151746971609351","9.75832","2.45122","-2.84502","0","0","0","0.135235","-0.990371","0.0296061","-0.222049","-0.0594143","-0.973224","0.965612","0.12504","-0.227946"
"8","151746989004370","9.45178","4.09883","-2.8067","0","0","0","0.143749","-0.989114","0.0314509","-0.223859","-0.0634579","-0.972554","0.963962","0.132763","-0.230544"
"8","151747005728003","8.72377","4.07968","-2.5768","0","0","0","0.15789","-0.987072","0.0275612","-0.225647","-0.0632389","-0.972154","0.961329","0.147275","-0.232715"
"8","151747021993872","8.14902","3.04514","-2.21278","0","0","0","0.159683","-0.986902","-0.022923","-0.234975","-0.0154455","-0.971879","0.958795","0.160579","-0.234363"
"8","151747039327857","7.17195","1.53162","-1.46562","0","0","0","0.144927","-0.983283","-0.110228","-0.249219","0.0715355","-0.965802","0.957542","0.167441","-0.234685"
"8","151747056082007","7.1911","0.765289","-1.15909","0","0","0","0.147364","-0.983522","-0.10473","-0.246764","0.0659789","-0.966827","0.957805","0.168319","-0.232975"
"8","151747072347876","7.42101","0.248016","-0.948334","0","0","0","0.153229","-0.985776","-0.0690444","-0.238093","0.0309826","-0.970748","0.959079","0.165186","-0.229959"
"8","151747089651343","7.86165","0.075592","-0.81424","0","0","0","0.144574","-0.986113","-0.0817334","-0.235509","0.0459351","-0.970786","0.961059","0.159599","-0.225598"
"8","151747105856177","8.39807","0.171387","-0.929184","0","0","0","0.14021","-0.987469","-0.0724279","-0.228634","0.0388835","-0.972735","0.963363","0.152947","-0.220317"
"8","151747122671363","8.58966","0.573715","-0.910019","0","0","0","0.134322","-0.988301","-0.072248","-0.223324","0.040842","-0.973888","0.965445","0.146949","-0.215225"
"8","151747140005347","8.74294","0.861084","-0.62265","0","0","0","0.104867","-0.977289","-0.184142","-0.23099","0.156163","-0.960342","0.967288","0.143243","-0.209367"
"8","151747156271216","8.93451","0.880249","-0.239487","0","0","0","0.119596","-0.986184","-0.114622","-0.215381","0.0869299","-0.972653","0.969179","0.141012","-0.202009"
"8","151747172994849","9.52841","0.650345","0.354416","0","0","0","0.0974458","-0.972937","-0.209516","-0.21618","0.184799","-0.958705","0.971478","0.138715","-0.192322"
"8","151747189810035","10.084","0.516235","-0.182007","0","0","0","0.105662","-0.98108","-0.162224","-0.198927","0.138985","-0.970109","0.974302","0.134775","-0.180478"
"8","151747206564185","10.7929","0.55455","-0.75676","0","0","0","0.0975364","-0.977941","-0.184709","-0.192082","0.163606","-0.967645","0.97652","0.12986","-0.171887"
"8","151747223379370","11.3484","0.937714","-0.910019","0","0","0","0.102668","-0.985002","-0.138675","-0.180711","0.118623","-0.976357","0.978163","0.1253","-0.165822"
"8","151747240133521","11.4059","1.30173","-0.718445","0","0","0","0.0774279","-0.961451","-0.263849","-0.186469","0.246008","-0.951162","0.979405","0.122846","-0.160233"
"8","151747256918189","11.2143","1.18677","-0.411911","0","0","0","0.0857362","-0.970612","-0.224859","-0.176799","0.207286","-0.962172","0.980506","0.122248","-0.153831"
"8","151747274221656","11.1952","0.49707","0.181992","0","0","0","0.086425","-0.971275","-0.221712","-0.168552","0.205082","-0.964122","0.981897","0.120694","-0.145986"
"8","151747290487525","11.8083","-0.460846","1.12076","0","0","0","0.0790702","-0.965853","-0.246732","-0.158704","0.232154","-0.959644","0.984155","0.115037","-0.134929"
"8","151747307852027","11.7699","-1.01643","1.54224","0","0","0","0.0737554","-0.968074","-0.23957","-0.140619","0.227729","-0.963517","0.987313","0.104753","-0.119333"
"8","151747324117896","11.9998","-0.614105","-0.354431","0","0","0","0.0712857","-0.978486","-0.193605","-0.121016","0.184181","-0.975414","0.990088","0.0929623","-0.105283"
"8","151747341421363","12.4213","-0.192627","-3.24733","0","0","0","0.0640233","-0.980543","-0.185571","-0.116683","0.177322","-0.977211","0.991103","0.0842172","-0.10306"
"8","151747357656714","11.8466","-0.479996","-6.04445","0","0","0","0.0527447","-0.978171","-0.200998","-0.128674","0.192943","-0.972736","0.990283","0.0771699","-0.115689"
"8","151747374502417","10.8312","0.401291","-7.80701","0","0","0","0.0399881","-0.978227","-0.203648","-0.154037","0.195339","-0.968563","0.987256","0.0701004","-0.142872"
"8","151747391744849","10.1223","1.66573","-6.82994","0","0","0","0.0286696","-0.973865","-0.225309","-0.184877","0.216347","-0.958652","0.982343","0.0691386","-0.173842"
"8","151747408560035","9.45178","2.01057","-5.39307","0","0","0","0.0268784","-0.972723","-0.230406","-0.210396","0.219821","-0.952582","0.977247","0.0740803","-0.198748"
"8","151747425375220","8.99199","2.10637","-3.43892","0","0","0","0.0302995","-0.972973","-0.228923","-0.227188","0.216329","-0.949519","0.973379","0.0807784","-0.214493"
"8","151747441580054","10.0074","1.68489","-3.43892","0","0","0","0.0300574","-0.96779","-0.249957","-0.23611","0.236119","-0.942603","0.971261","0.0873495","-0.221407"
"8","151747458914038","11.9041","0.49707","-3.05576","0","0","0","0.0232965","-0.960079","-0.278757","-0.242687","0.265061","-0.933191","0.969825","0.0893909","-0.226824"
"8","151747475698706","11.8849","-0.441681","-1.92542","0","0","0","0.021305","-0.962269","-0.271264","-0.241789","0.258312","-0.935314","0.970095","0.0855155","-0.227163"
"8","151747492452857","11.0036","-0.997269","-2.38521","0","0","0","0.0321213","-0.979326","-0.199724","-0.234748","0.186845","-0.95393","0.971525","0.0775262","-0.223893"
"8","151747508749244","10.0457","-1.01643","-2.50017","0","0","0","0.00608349","-0.963979","-0.265908","-0.233988","0.257158","-0.937614","0.97222","0.0679232","-0.223996"
"8","151747526083228","9.01114","-0.63327","-1.71468","0","0","0","0.0164762","-0.981907","-0.188646","-0.231807","0.17978","-0.956004","0.972622","0.0594808","-0.224651"
"8","151747542288062","7.99576","-0.0968323","-1.00581","0","0","0","0.0127998","-0.983194","-0.182114","-0.228447","0.174437","-0.957802","0.973472","0.053863","-0.222375"
"8","151747559591529","7.09532","0.592865","-0.718445","0","0","0","0.0163903","-0.986821","-0.160983","-0.223594","0.15331","-0.962549","0.974545","0.0517714","-0.218135"
"8","151747575826880","6.78879","1.30173","-0.56517","0","0","0","0.0233563","-0.989627","-0.141753","-0.219007","0.133283","-0.966577","0.975444","0.0536205","-0.213622"
"8","151747593221900","7.36353","1.89563","-0.0670624","0","0","0","0.0293759","-0.989149","-0.143949","-0.214492","0.134419","-0.967432","0.976284","0.0592951","-0.208216"
"8","151747610006568","7.84248","1.79984","0.00956726","0","0","0","0.0521697","-0.995412","-0.0802056","-0.204651","0.0679538","-0.976473","0.977444","0.0673565","-0.200167"
"8","151747626241919","8.35976","1.24425","-0.316116","0","0","0","0.039606","-0.983336","-0.17743","-0.201617","0.166052","-0.965286","0.978663","0.074004","-0.191681"
"8","151747643575904","8.55135","0.458755","-0.62265","0","0","0","0.0563255","-0.992047","-0.112563","-0.191991","0.0998758","-0.976301","0.979779","0.0766018","-0.184839"
"8","151747659780738","8.37892","0.075592","-0.296951","0","0","0","0.0574423","-0.99317","-0.101553","-0.185716","0.0893152","-0.978536","0.980923","0.0750693","-0.179317"
"8","151747677145240","8.03407","0.075592","0.296951","0","0","0","0.0669002","-0.997135","-0.0353068","-0.173982","0.0231857","-0.984476","0.982474","0.0720044","-0.171932"
"8","151747693350074","8.09155","0.362961","0.546005","0","0","0","0.0598973","-0.996226","-0.0628184","-0.165995","0.0521143","-0.984748","0.984306","0.0694113","-0.162247"
"8","151747710684058","8.60883","0.880249","0.795059","0","0","0","0.0672962","-0.99761","-0.0156366","-0.151852","0.00524854","-0.988389","0.98611","0.0688893","-0.151136"
"8","151747727499244","9.45178","1.2251","0.52684","0","0","0","0.0620465","-0.995764","-0.0678489","-0.143017","0.0584081","-0.987995","0.987773","0.0710052","-0.138787"
"8","151747744283911","10.6971","1.78069","-0.392746","0","0","0","0.0780313","-0.996775","0.0187445","-0.127235","-0.028605","-0.99146","0.988798","0.0749799","-0.129056"
"8","151747761038062","11.2335","2.02974","-1.21655","0","0","0","0.0862897","-0.995496","0.0392691","-0.120356","-0.0495437","-0.991494","0.988973","0.0808294","-0.124089"
"8","151747777303931","11.7316","2.79607","-1.35066","0","0","0","0.0848453","-0.995959","-0.0294536","-0.125521","0.018641","-0.991916","0.988456","0.0878564","-0.123432"
"8","151747794668433","12.6895","3.63904","-0.201172","0","0","0","0.105265","-0.993236","0.0490033","-0.116159","-0.0612205","-0.991342","0.987637","0.0986614","-0.121817"
"8","151747811361548","13.1493","3.73483","1.10159","0","0","0","0.105793","-0.992572","-0.06007","-0.118585","0.0473847","-0.991813","0.987292","0.11205","-0.112691"
"8","151747828207251","13.3218","3.37082","0.431061","0","0","0","0.124943","-0.99216","0.00290365","-0.09764","-0.0152081","-0.995106","0.987348","0.124048","-0.0987746"
