"id","time","accX","accY","accZ","gyroX","gyroY","gyroZ","rot1","rot2","rot3","rot4","rot5","rot6","rot7","rot8","rot9"
"6","1958228689588","9.8158","1.09099","-2.30858","0","0","0","0","0","0","0","0","0","0","0","0"
"6","1958245565809","9.8158","1.09099","-2.30858","0","0","0","0","0","0","0","0","0","0","0","0"
"6","1958262289442","9.8158","1.09099","-2.30858","0","0","0","0","0","0","0","0","0","0","0","0"
"6","1958279104627","9.8158","1.09099","-2.30858","0","0","0","0","0","0","0","0","0","0","0","0"
"6","1958295889295","9.8158","1.09099","-2.30858","0","0","0","0","0","0","0","0","0","0","0","0"
"6","1958312643446","9.8158","1.09099","-2.30858","0","0","0","0","0","0","0","0","0","0","0","0"
"6","1958329458631","9.8158","1.09099","-2.30858","0","0","0","0","0","0","0","0","0","0","0","0"
"6","1958347830213","9.8158","1.09099","-2.30858","0","0","0","0","0","0","0","0","0","0","0","0"
"6","1958357809461","9.8158","1.09099","-2.30858","0","0","0","0","0","0","0","0","0","0","0","0"
"6","1958371450819","9.8158","1.07182","-2.17447","0","0","0","0","0","0","0","0","0","0","0","0"
"6","1958388266004","9.83495","1.05267","-2.30858","0","0","0","0","0","0","0","0","0","0","0","0"
"6","1958397818006","9.85411","1.03351","-2.32774","0","0","0","0","0","0","0","0","0","0","0","0"
"6","1958413381971","9.87326","1.05267","-2.34689","0","0","0","0","0","0","0","0","0","0","0","0"
"6","1958430227674","9.83495","1.07182","-2.28943","0","0","0","0","0","0","0","0","0","0","0","0"
"6","1958446951307","9.79663","1.05267","-2.2511","0","0","0","0","0","0","0","0","0","0","0","0"
"6","1958463674940","9.8158","1.03351","-2.28943","0","0","0","0","0","0","0","0","0","0","0","0"
"6","1958480520643","9.85411","1.05267","-2.36606","0","0","0","0","0","0","0","0","0","0","0","0"
"6","1958497274793","9.8158","1.05267","-2.40437","0","0","0","0","0","0","0","0","0","0","0","0"
"6","1958514089979","9.85411","1.11014","-2.30858","0","0","0","0","0","0","0","0","0","0","0","0"
"6","1958530874647","9.85411","1.11014","-2.28943","0","0","0","0","0","0","0","0","0","0","0","0"
"6","1958547598280","9.8158","1.07182","-2.27026","0","0","0","0","0","0","0","0","0","0","0","0"
"6","1958564413465","9.83495","1.05267","-2.30858","0","0","0","0","0","0","0","0","0","0","0","0"
"6","1958581259168","9.83495","1.05267","-2.36606","0","0","0","0","0","0","0","0","0","0","0","0"
"6","1958598043836","9.85411","1.09099","-2.36606","0","0","0","0","0","0","0","0","0","0","0","0"
"6","1958614828504","9.83495","1.07182","-2.30858","0","0","0","0.142062","-0.97793","0.153202","-0.206204","-0.180614","-0.961696","0.968142","0.105029","-0.227311"
"6","1958631582655","9.77748","1.07182","-2.11699","0","0","0","0.151624","-0.968329","0.198368","-0.199277","-0.226514","-0.953404","0.968142","0.105029","-0.227311"
"6","1958648397840","9.8158","1.05267","-2.11699","0","0","0","0.153292","-0.965983","0.208277","-0.195968","-0.236299","-0.951714","0.968555","0.105075","-0.225524"
"6","1958665274061","9.8158","1.05267","-2.11699","0","0","0","0.154203","-0.964678","0.213583","-0.194415","-0.241567","-0.950709","0.968723","0.105079","-0.224798"
"6","1958681967176","9.83495","1.05267","-2.09784","0","0","0","0.146833","-0.973029","0.177918","-0.20004","-0.205361","-0.958025","0.968723","0.105079","-0.224798"
"6","1958698660291","9.85411","1.09099","-2.09784","0","0","0","0.146742","-0.972983","0.178241","-0.199313","-0.20558","-0.958129","0.968886","0.105072","-0.224096"
"6","1958715536512","9.85411","1.07182","-2.09784","0","0","0","0.145441","-0.974078","0.173258","-0.198525","-0.200291","-0.959412","0.969245","0.105141","-0.222509"
"6","1958732290663","9.85411","1.05267","-2.15532","0","0","0","0.150362","-0.968619","0.197909","-0.194172","-0.22522","-0.954763","0.969375","0.105131","-0.221944"
"6","1958749105848","9.83495","1.03351","-2.17447","0","0","0","0.132858","-0.984467","0.114778","-0.205981","-0.140701","-0.968388","0.969495","0.105016","-0.221475"
"6","1958765859998","9.85411","1.05267","-2.19363","0","0","0","0.143947","-0.975099","0.168703","-0.197836","-0.195393","-0.960564","0.969608","0.104895","-0.221036"
"6","1958782644666","9.85411","1.03351","-2.21278","0","0","0","0.144871","-0.974175","0.173194","-0.19716","-0.199951","-0.959764","0.969608","0.104895","-0.221036"
"6","1958799429334","9.8158","1.03351","-2.11699","0","0","0","0.132148","-0.984654","0.113987","-0.20502","-0.13966","-0.968742","0.969796","0.104648","-0.220329"
"6","1958816244520","9.8158","1.07182","-2.09784","0","0","0","0.145576","-0.973056","0.178802","-0.195188","-0.205423","-0.959011","0.969902","0.104709","-0.219834"
"6","1958833029188","9.83495","1.05267","-2.13615","0","0","0","0.151264","-0.966509","0.207317","-0.190425","-0.234293","-0.953334","0.969978","0.104727","-0.219487"
"6","1958849783338","9.8158","1.07182","-2.11699","0","0","0","0.150127","-0.967887","0.201633","-0.191322","-0.228531","-0.954552","0.969978","0.104727","-0.219487"
"6","1958866568006","9.83495","1.07182","-2.17447","0","0","0","0.158293","-0.95689","0.243528","-0.184079","-0.270912","-0.94484","0.970082","0.104733","-0.219026"
"6","1958883352674","9.79663","1.07182","-2.15532","0","0","0","0.147535","-0.970755","0.18939","-0.192591","-0.216017","-0.957207","0.970125","0.104746","-0.218829"
"6","1958900167860","9.8158","1.03351","-2.17447","0","0","0","0.157929","-0.957386","0.241807","-0.183933","-0.269116","-0.945381","0.970169","0.104826","-0.218596"
"6","1958916952528","9.83495","1.05267","-2.19363","0","0","0","0.157873","-0.957348","0.241992","-0.183673","-0.269258","-0.945391","0.970227","0.104804","-0.218347"
"6","1958933706678","9.8158","1.07182","-2.13615","0","0","0","0.156779","-0.958822","0.236811","-0.184448","-0.263984","-0.946727","0.970257","0.104748","-0.218241"
"6","1958950521864","9.85411","1.05267","-2.17447","0","0","0","0.159772","-0.954144","0.253143","-0.181314","-0.280439","-0.942592","0.97036","0.104702","-0.217806"
"6","1958967306532","9.83495","1.05267","-2.19363","0","0","0","0.151436","-0.965817","0.210391","-0.188332","-0.237139","-0.953046","0.97036","0.104702","-0.217806"
"6","1958984121717","9.83495","1.07182","-2.21278","0","0","0","0.15148","-0.965844","0.210237","-0.188447","-0.237008","-0.953055","0.970331","0.10475","-0.217913"
"6","1959000936903","9.83495","1.07182","-2.17447","0","0","0","0.146546","-0.971662","0.185466","-0.192364","-0.211904","-0.958172","0.97032","0.104739","-0.217967"
"6","1959017630018","9.83495","1.07182","-2.19363","0","0","0","0.146546","-0.971662","0.185466","-0.192347","-0.211902","-0.958175","0.970323","0.104743","-0.217949"
"6","1959034506239","9.8158","1.03351","-2.21278","0","0","0","0.159677","-0.954477","0.251948","-0.181595","-0.279268","-0.942885","0.970323","0.104804","-0.217921"
"6","1959051290907","9.8158","1.05267","-2.21278","0","0","0","0.149809","-0.967885","0.201882","-0.189816","-0.228543","-0.95485","0.970323","0.104724","-0.217958"
"6","1959068045057","9.8158","1.03351","-2.23195","0","0","0","0.148083","-0.96987","0.193453","-0.191132","-0.219988","-0.956595","0.97033","0.104681","-0.21795"
"6","1959084799207","9.8158","1.05267","-2.17447","0","0","0","0.141878","-0.976351","0.163123","-0.195671","-0.1892","-0.95335","0.970352","0.104603","-0.217887"
"6","1959101553358","9.83495","1.05267","-2.15532","0","0","0","0.158274","-0.956298","0.245854","-0.18272","-0.273059","-0.944485","0.970342","0.104565","-0.217953"
"6","1959118338026","9.83495","1.01434","-2.15532","0","0","0","0.158258","-0.956286","0.245911","-0.182718","-0.273111","-0.944471","0.970345","0.104538","-0.217952"
"6","1959135183729","9.87326","1.03351","-2.21278","0","0","0","0.144665","-0.973377","0.177791","-0.193596","-0.204052","-0.959627","0.970357","0.104405","-0.217961"
"6","1959151937879","9.83495","1.03351","-2.23195","0","0","0","0.165033","-0.944867","0.282825","-0.176472","-0.310418","-0.934076","0.970372","0.104243","-0.217972"
"6","1959168661512","9.79663","1.07182","-2.23195","0","0","0","0.161834","-0.950095","0.266702","-0.179486","-0.294096","-0.938772","0.970358","0.104055","-0.218123"
"6","1959185537733","9.83495","1.03351","-2.27026","0","0","0","0.155852","-0.959429","0.234958","-0.185032","-0.262011","-0.947161","0.970295","0.104142","-0.21836"
"6","1959202291883","9.87326","1.01434","-2.32774","0","0","0","0.15766","-0.956817","0.244224","-0.183867","-0.271436","-0.94473","0.970225","0.104041","-0.218722"
"6","1959219046034","9.89243","1.05267","-2.21278","0","0","0","0.157619","-0.956786","0.244369","-0.184293","-0.271616","-0.944596","0.970151","0.103851","-0.219141"
"6","1959235861219","9.83495","1.05267","-2.21278","0","0","0","0.164848","-0.945071","0.282253","-0.177896","-0.309964","-0.933957","0.970143","0.10375","-0.219221"
"6","1959252615370","9.8158","1.07182","-2.15532","0","0","0","0.139274","-0.978384","0.152865","-0.198627","-0.178834","-0.963621","0.970129","0.103844","-0.219241"
"6","1959269430555","9.77748","1.05267","-2.15532","0","0","0","0.158035","-0.956306","0.245977","-0.184022","-0.273267","-0.944172","0.970135","0.103947","-0.219166"
"6","1959286245741","9.79663","1.07182","-2.17447","0","0","0","0.156795","-0.95815","0.239508","-0.185057","-0.266715","-0.945842","0.970139","0.103981","-0.219132"
"6","1959303030409","9.79663","1.07182","-2.21278","0","0","0","0.147873","-0.969785","0.194037","-0.192256","-0.220638","-0.95622","0.97014","0.104094","-0.219074"
"6","1959319784559","9.8158","1.05267","-2.23195","0","0","0","0.15417","-0.962088","0.224987","-0.187408","-0.252049","-0.949394","0.970108","0.104204","-0.219161"
"6","1959336569227","9.85411","1.07182","-2.28943","0","0","0","0.153734","-0.962775","0.222326","-0.187987","-0.24939","-0.949982","0.970065","0.10425","-0.219329"
"6","1959353292860","9.83495","1.05267","-2.27026","0","0","0","0.154455","-0.961907","0.225564","-0.18771","-0.252716","-0.949157","0.970004","0.104262","-0.219593"
"6","1959370169081","9.79663","1.05267","-2.23195","0","0","0","0.159602","-0.954628","0.251421","-0.183575","-0.278943","-0.942598","0.969963","0.104286","-0.219765"
"6","1959386892713","9.79663","1.07182","-2.27026","0","0","0","0.154191","-0.96246","0.223374","-0.188427","-0.250573","-0.949583","0.969907","0.104327","-0.219989"
"6","1959403646864","9.83495","1.07182","-2.27026","0","0","0","0.162072","-0.951202","0.262578","-0.182205","-0.290367","-0.939408","0.969811","0.104409","-0.220374"
"6","1959420919813","9.85411","1.05267","-2.27026","0","0","0","0.162171","-0.951277","0.262245","-0.182557","-0.290099","-0.939423","0.969729","0.104473","-0.220708"
"6","1959437796034","9.8158","1.07182","-2.28943","0","0","0","0.156533","-0.959767","0.233121","-0.18771","-0.260638","-0.947013","0.969671","0.10448","-0.220956"
"6","1959454061903","9.73917","1.05267","-2.32774","0","0","0","0.156651","-0.959846","0.232713","-0.188049","-0.260299","-0.947039","0.969587","0.104593","-0.221274"
"6","1959470846571","9.70084","1.09099","-2.30858","0","0","0","0.155517","-0.961645","0.225948","-0.18953","-0.253529","-0.948579","0.969481","0.104696","-0.221689"
"6","1959487600721","9.79663","1.07182","-2.27026","0","0","0","0.152278","-0.966093","0.208509","-0.192754","-0.235948","-0.952457","0.969359","0.104847","-0.222148"
"6","1959504415907","9.91159","0.976028","-2.2511","0","0","0","0.160523","-0.955112","0.248985","-0.186273","-0.277038","-0.942631","0.969296","0.104935","-0.222382"
"6","1959521231092","9.87326","0.976028","-2.34689","0","0","0","0.152327","-0.965814","0.209763","-0.19264","-0.237184","-0.952173","0.969374","0.104633","-0.222183"
"6","1959537985243","9.77748","0.937714","-2.38521","0","0","0","0.154261","-0.963018","0.220907","-0.191442","-0.248479","-0.94953","0.969306","0.104185","-0.222693"
"6","1959554739393","9.72","0.918564","-2.38521","0","0","0","0.157486","-0.958372","0.238163","-0.189567","-0.266026","-0.945143","0.969155","0.103699","-0.223571"
"6","1959571554579","9.79663","0.995193","-2.36606","0","0","0","0.156065","-0.95981","0.233254","-0.191375","-0.261055","-0.946164","0.96903","0.103024","-0.224425"
"6","1959588308729","9.85411","1.05267","-2.481","0","0","0","0.155946","-0.959729","0.233671","-0.192028","-0.261508","-0.945906","0.96892","0.102639","-0.225076"
"6","1959605184950","9.64337","1.05267","-2.50017","0","0","0","0.140229","-0.977546","0.157287","-0.204788","-0.184057","-0.961345","0.968709","0.102598","-0.226"
"6","1959621908582","9.54758","0.956879","-2.38521","0","0","0","0.142368","-0.975882","0.165485","-0.204721","-0.192605","-0.959684","0.968412","0.102749","-0.227204"
"6","1959638662733","9.68169","0.822769","-2.27026","0","0","0","0.14592","-0.97243","0.181897","-0.203229","-0.209409","-0.956476","0.968197","0.102602","-0.228183"
"6","1959655538954","10.1032","0.63118","-2.481","0","0","0","0.149156","-0.968243","0.200646","-0.200631","-0.22833","-0.952687","0.968246","0.101843","-0.228316"
"6","1959672293104","10.199","0.63118","-2.59595","0","0","0","0.148002","-0.967522","0.204931","-0.200777","-0.232292","-0.951698","0.968392","0.0997082","-0.228636"
"6","1959689047254","10.0265","0.726974","-2.65343","0","0","0","0.153027","-0.95893","0.238822","-0.197066","-0.266426","-0.943495","0.968374","0.097316","-0.229743"
"6","1959705862440","9.87326","0.726974","-2.5768","0","0","0","0.157513","-0.950897","0.266429","-0.194426","-0.294377","-0.935703","0.968188","0.0955849","-0.231247"
"6","1959722586073","9.70084","0.726974","-2.38521","0","0","0","0.157871","-0.949214","0.272156","-0.195349","-0.300188","-0.933663","0.967944","0.0942331","-0.232819"
"6","1959739401258","9.45178","0.784454","-2.21278","0","0","0","0.134032","-0.976889","0.166504","-0.212572","-0.192451","-0.958006","0.96791","0.0930095","-0.233453"
"6","1959756246961","9.35599","0.822769","-2.09784","0","0","0","0.133564","-0.976636","0.168355","-0.21235","-0.194134","-0.957716","0.968023","0.0921667","-0.233318"
"6","1959772970594","9.37515","0.74614","-2.05952","0","0","0","0.135078","-0.974097","0.181355","-0.209126","-0.206937","-0.955742","0.968515","0.0911736","-0.231661"
"6","1959789724745","9.47095","0.516235","-2.09784","0","0","0","0.139117","-0.968077","0.208502","-0.204578","-0.234103","-0.950444","0.968914","0.089568","-0.230615"
"6","1959806509413","9.77748","0.228867","-2.23195","0","0","0","0.137366","-0.966576","0.216473","-0.203716","-0.241442","-0.948792","0.969345","0.0862326","-0.230073"
"6","1959823263563","9.94991","0.228867","-2.34689","0","0","0","0.137366","-0.966576","0.216473","-0.203716","-0.241442","-0.948792","0.969345","0.0862326","-0.230073"
"6","1959840109266","10.0648","0.113907","-2.481","0","0","0","0.145208","-0.951941","0.269673","-0.19677","-0.294903","-0.935048","0.969637","0.0827131","-0.230136"
"6","1959856863416","10.0265","-0.0585175","-2.42352","0","0","0","0.145096","-0.947206","0.285915","-0.196019","-0.310765","-0.930055","0.969806","0.0789021","-0.230761"
"6","1959873617567","9.87326","-0.192627","-2.42352","0","0","0","0.131201","-0.961518","0.241391","-0.204382","-0.2645","-0.942479","0.970059","0.0743186","-0.23122"
"6","1959890493788","9.68169","-0.154312","-2.59595","0","0","0","0.143913","-0.935438","0.322871","-0.194372","-0.346631","-0.917642","0.970314","0.0693033","-0.231708"
"6","1959907217420","9.70084","0.0564423","-2.61511","0","0","0","0.135104","-0.943904","0.301316","-0.200347","-0.323847","-0.924653","0.970365","0.0645569","-0.232861"
"6","1959924002088","9.8158","0.267181","-2.63428","0","0","0","0.133459","-0.942012","0.3079","-0.202184","-0.330025","-0.922066","0.970211","0.0608051","-0.234505"
"6","1959940817274","10.1223","0.267181","-2.69174","0","0","0","0.134309","-0.938138","0.319151","-0.202491","-0.341256","-0.917901","0.97003","0.0586568","-0.235798"
"6","1959957571424","10.1032","0.152222","-2.9408","0","0","0","0.133379","-0.937577","0.321184","-0.203668","-0.343093","-0.916955","0.969912","0.056888","-0.236716"
"6","1959974356092","10.1032","0.0947571","-3.11322","0","0","0","0.132615","-0.936678","0.32411","-0.20611","-0.345911","-0.915349","0.969501","0.0545864","-0.238932"
"6","1959991171278","10.0457","0.133072","-3.03659","0","0","0","0.144377","-0.912986","0.381591","-0.201161","-0.404659","-0.892068","0.96886","0.0520326","-0.242081"
"6","1960007955946","9.91159","0.190536","-2.97913","0","0","0","0.134956","-0.928833","0.345046","-0.210475","-0.367158","-0.906033","0.968239","0.0496515","-0.245046"
"6","1960024771131","9.85411","0.190536","-2.9408","0","0","0","0.132999","-0.930955","0.340051","-0.214246","-0.361991","-0.907227","0.967683","0.0478056","-0.247598"
"6","1960041525282","9.77748","0.343811","-2.95996","0","0","0","0.142638","-0.912367","0.383721","-0.210302","-0.406769","-0.888995","0.967175","0.0461074","-0.249893"
"6","1960058279432","9.62421","0.49707","-3.11322","0","0","0","0.142609","-0.912327","0.383825","-0.212584","-0.406972","-0.888359","0.96668","0.0450929","-0.251984"
"6","1960075155653","9.64337","0.765289","-3.24733","0","0","0","0.143692","-0.91241","0.383223","-0.215214","-0.406784","-0.887812","0.965938","0.0450964","-0.254815"
"6","1960091879286","9.77748","0.880249","-3.26649","0","0","0","0.147152","-0.910133","0.387304","-0.216986","-0.411732","-0.885095","0.96502","0.0462045","-0.258074"
"6","1960108602918","9.8158","1.01434","-3.55386","0","0","0","0.147294","-0.915679","0.373947","-0.221416","-0.399002","-0.889816","0.963991","0.0482662","-0.261517"
"6","1960125479139","10.0074","1.34004","-3.32397","0","0","0","0.161941","-0.903997","0.395682","-0.222672","-0.424109","-0.877809","0.961349","0.0540459","-0.269976"
"6","1960142233289","10.1032","1.51247","-3.15155","0","0","0","0.145834","-0.93856","0.31279","-0.237096","-0.340114","-0.910005","0.960478","0.0585483","-0.272128"
"6","1960159017957","10.0457","1.91479","-3.26649","0","0","0","0.156111","-0.932298","0.326266","-0.234254","-0.355837","-0.904713","0.959559","0.0648069","-0.273945"
"6","1960175833143","9.58589","2.27879","-3.20901","0","0","0","0.152633","-0.947957","0.27943","-0.241482","-0.309946","-0.919576","0.958326","0.07288","-0.276223"
"6","1960192587293","9.20273","2.66196","-2.51932","0","0","0","0.166095","-0.928834","0.331181","-0.232428","-0.363258","-0.902231","0.958326","0.07288","-0.276223"
"6","1960209371961","9.1261","2.81523","-1.61888","0","0","0","0.1708","-0.934029","0.313715","-0.232171","-0.34758","-0.908452","0.957561","0.082328","-0.276221"
"6","1960226187147","9.29852","2.01057","-0.220322","0","0","0","0.179384","-0.933577","0.310251","-0.225387","-0.345979","-0.910769","0.957613","0.0934511","-0.272479"
"6","1960242910780","9.75832","1.09099","0.0287323","0","0","0","0.180072","-0.934607","0.306731","-0.199956","-0.340097","-0.918886","0.963116","0.104133","-0.248122"
"6","1960259756483","10.6204","0.516235","-0.737595","0","0","0","0.180072","-0.934607","0.306731","-0.199956","-0.340097","-0.918886","0.963116","0.104133","-0.248122"
"6","1960276510633","11.2335","1.01434","-1.73383","0","0","0","0.167994","-0.939782","0.297638","-0.187167","-0.326844","-0.926359","0.967857","0.0999151","-0.230804"
"6","1960293234266","11.0994","1.819","-2.19363","0","0","0","0.175874","-0.924885","0.337129","-0.179783","-0.366885","-0.912729","0.967857","0.0999151","-0.230804"
"6","1960310079969","9.96906","2.83438","-2.09784","0","0","0","0.176383","-0.925529","0.33509","-0.176599","-0.364658","-0.914241","0.96835","0.10208","-0.227768"
"6","1960326834120","8.89619","3.52408","-1.94456","0","0","0","0.180314","-0.930282","0.319471","-0.175266","-0.349984","-0.920213","0.967868","0.109935","-0.226154"
"6","1960343588270","8.28313","3.50493","-1.5614","0","0","0","0.194588","-0.921696","0.335576","-0.16651","-0.368189","-0.914719","0.966649","0.122117","-0.225116"
"6","1960360495008","8.39807","2.83438","-1.23572","0","0","0","0.20209","-0.92919","0.309461","-0.165543","-0.343843","-0.92432","0.965275","0.135567","-0.223308"
"6","1960377249159","8.8004","2.20216","-1.38898","0","0","0","0.197764","-0.950954","0.237857","-0.174305","-0.272897","-0.946121","0.964628","0.145649","-0.219726"
"6","1960393972791","8.89619","2.14468","-1.92542","0","0","0","0.200354","-0.953127","0.226732","-0.171455","-0.261964","-0.949725","0.964604","0.151407","-0.215904"
"6","1960410818495","9.01114","2.08722","-1.6572","0","0","0","0.214731","-0.938876","0.269076","-0.157871","-0.305245","-0.939096","0.963829","0.159174","-0.213767"
"6","1960427542127","9.06862","2.10637","-1.08244","0","0","0","0.211909","-0.944122","0.252445","-0.161639","-0.288613","-0.943703","0.963829","0.159174","-0.213767"
"6","1960444387831","9.16441","1.89563","-0.775909","0","0","0","0.213239","-0.945276","0.246944","-0.158163","-0.282823","-0.946042","0.964113","0.162675","-0.209817"
"6","1960454458631","9.27936","1.78069","-0.833389","0","0","0","0.210197","-0.95172","0.223709","-0.156925","-0.258698","-0.953126","0.964983","0.165239","-0.203726"
"6","1960465689100","9.56674","1.35919","-1.13992","0","0","0","0.210197","-0.95172","0.223709","-0.156925","-0.258698","-0.953126","0.964983","0.165239","-0.203726"
"6","1960478170789","9.75832","1.28256","-1.44646","0","0","0","0.204737","-0.959186","0.195052","-0.157488","-0.228958","-0.960612","0.966064","0.165955","-0.197936"
"6","1960494650282","10.1415","1.24425","-1.59972","0","0","0","0.207023","-0.951882","0.22597","-0.147908","-0.258771","-0.954547","0.967091","0.16419","-0.194363"
"6","1960511526502","10.0265","1.43584","-1.63805","0","0","0","0.209848","-0.941116","0.265074","-0.137558","-0.296832","-0.94497","0.968009","0.161838","-0.191748"
"6","1960528280653","9.94991","1.74237","-1.54225","0","0","0","0.211708","-0.931799","0.294841","-0.129825","-0.325818","-0.936477","0.968672","0.159982","-0.189949"
"6","1960545095838","9.87326","2.14468","-1.71468","0","0","0","0.200981","-0.953302","0.225436","-0.143266","-0.256262","-0.955931","0.969062","0.159827","-0.188079"
"6","1960561849989","10.1223","2.25964","-1.79131","0","0","0","0.202019","-0.954217","0.220584","-0.142407","-0.251454","-0.957335","0.968973","0.161987","-0.186685"
"6","1960578604139","10.4863","2.29796","-1.73383","0","0","0","0.21052","-0.942402","0.259921","-0.132306","-0.290899","-0.947562","0.968595","0.165092","-0.185925"
"6","1960595449842","10.7545","2.08722","-1.48477","0","0","0","0.219068","-0.926906","0.30472","-0.120077","-0.335544","-0.93434","0.968293","0.168095","-0.184807"
"6","1960612295545","10.7737","1.95311","-1.35066","0","0","0","0.211295","-0.947492","0.240029","-0.131794","-0.270949","-0.953529","0.968496","0.169841","-0.182124"
"6","1960628988661","10.7737","1.85732","-1.40814","0","0","0","0.221398","-0.920426","0.322178","-0.109588","-0.351768","-0.929651","0.969006","0.170516","-0.178749"
"6","1960645773329","11.1186","2.35542","-2.21278","0","0","0","0.22385","-0.907053","0.356575","-0.0982914","-0.385004","-0.917666","0.969655","0.170371","-0.175339"
"6","1960662557997","12.6321","3.7923","-5.16316","0","0","0","0.218582","-0.927986","0.301768","-0.110319","-0.330763","-0.937243","0.969563","0.171574","-0.174673"
"6","1960679342664","13.6474","4.38622","-5.29727","0","0","0","0.225091","-0.935038","0.273931","-0.12522","-0.306576","-0.943573","0.966258","0.178088","-0.186093"
"6","1960696127332","13.1877","4.06052","-3.63051","0","0","0","0.240546","-0.925762","0.291724","-0.131197","-0.328802","-0.935242","0.96173","0.186695","-0.200549"
"6","1960712942518","12.0381","3.00681","-2.00204","0","0","0","0.242466","-0.945828","0.215917","-0.15232","-0.256912","-0.954356","0.958128","0.19851","-0.206361"
"6","1960729696668","10.5438","2.62364","-1.08244","0","0","0","0.253246","-0.924654","0.284397","-0.129102","-0.323654","-0.937327","0.958749","0.200658","-0.201338"
"6","1960746511854","8.60883","3.38998","-1.00581","0","0","0","0.243491","-0.945211","0.217459","-0.146672","-0.257513","-0.955078","0.958749","0.200658","-0.201338"
"6","1960763296522","7.97659","3.81146","-1.81047","0","0","0","0.256192","-0.943676","0.209385","-0.138866","-0.250298","-0.958158","0.956599","0.216396","-0.195169"
"6","1960780081190","8.89619","3.52408","-3.4964","0","0","0","0.255213","-0.956397","0.142029","-0.159842","-0.186605","-0.969345","0.953581","0.224687","-0.200496"
"6","1960796835340","10.8312","1.26341","-5.52718","0","0","0","0.256266","-0.95514","0.148446","-0.158148","-0.192936","-0.968383","0.953581","0.224687","-0.200496"
"6","1960813589491","10.927","-0.63327","-5.60381","0","0","0","0.257704","-0.944699","0.202809","-0.174773","-0.252012","-0.951811","0.950286","0.209841","-0.230052"
"6","1960830557264","10.0457","-1.80193","-4.79916","0","0","0","0.236836","-0.966746","0.0964951","-0.202153","-0.146182","-0.968382","0.950286","0.209841","-0.230052"
"6","1960847250379","9.01114","-1.84024","-3.72629","0","0","0","0.245849","-0.943777","0.221003","-0.187924","-0.270084","-0.944319","0.950917","0.190628","-0.243758"
"6","1960863974012","8.05322","-1.09306","-3.15155","0","0","0","0.229079","-0.948233","0.219947","-0.202087","-0.267361","-0.942167","0.952199","0.171382","-0.252872"
"6","1960880911268","7.65091","-0.173462","-3.07491","0","0","0","0.222505","-0.942511","0.249327","-0.204878","-0.295231","-0.933201","0.953161","0.15656","-0.25879"
"6","1960897543348","8.16818","1.05267","-2.97913","0","0","0","0.22226","-0.933178","0.282451","-0.205064","-0.327959","-0.922167","0.953179","0.14704","-0.264253"
"6","1960914297498","8.95367","1.76152","-3.07491","0","0","0","0.215909","-0.943391","0.251785","-0.219095","-0.298101","-0.92905","0.951515","0.145425","-0.271055"
"6","1960931234754","9.60506","1.68489","-3.45808","0","0","0","0.228802","-0.927139","0.296754","-0.210497","-0.344749","-0.914789","0.950442","0.14684","-0.274039"
"6","1960947927870","10.0074","1.51247","-3.4006","0","0","0","0.234058","-0.919853","0.314782","-0.209155","-0.363835","-0.907678","0.949458","0.146611","-0.27755"
"6","1960964682020","9.35599","1.14845","-3.07491","0","0","0","0.234058","-0.919853","0.314782","-0.209155","-0.363835","-0.907678","0.949048","0.14551","-0.279526"
"6","1960981497206","8.62798","0.726974","-2.51932","0","0","0","0.21222","-0.948367","0.23572","-0.23204","-0.283219","-0.930562","0.949274","0.142787","-0.280164"
"6","1960998251356","8.01491","0.286331","-2.04036","0","0","0","0.209217","-0.947725","0.240926","-0.231544","-0.287384","-0.929407","0.950061","0.138662","-0.279566"
"6","1961015066541","7.7467","0.171387","-1.75299","0","0","0","0.206539","-0.950968","0.230218","-0.233936","-0.276463","-0.932117","0.950061","0.138662","-0.279566"
"6","1961031820692","8.05322","-0.0393524","-1.79131","0","0","0","0.192826","-0.955015","0.22531","-0.233522","-0.267686","-0.934779","0.95304","0.127635","-0.274634"
"6","1961048605360","8.37892","-0.422516","-1.81047","0","0","0","0.192826","-0.955015","0.22531","-0.233522","-0.267686","-0.934779","0.95304","0.127635","-0.274634"
"6","1961065542616","8.70461","-1.03558","-1.67636","0","0","0","0.176271","-0.96525","0.192927","-0.238922","-0.23209","-0.942895","0.954906","0.12011","-0.27153"
"6","1961082235731","8.81956","-0.844009","-1.54225","0","0","0","0.166245","-0.954551","0.247375","-0.226846","-0.281159","-0.932465","0.959637","0.0989014","-0.263278"
"6","1961098989881","8.93451","-0.269257","-1.58057","0","0","0","0.166245","-0.954551","0.247375","-0.226846","-0.281159","-0.932465","0.959637","0.0989014","-0.263278"
"6","1961115805067","9.10693","0.171387","-1.5614","0","0","0","0.169976","-0.938609","0.300201","-0.215545","-0.332669","-0.91808","0.961586","0.0913448","-0.258858"
"6","1961132528700","9.1261","0.209702","-1.48477","0","0","0","0.16661","-0.935174","0.312555","-0.211056","-0.343462","-0.915144","0.96317","0.0865056","-0.254599"
"6","1961149282850","9.33684","-0.326736","-1.27403","0","0","0","0.165044","-0.930219","0.3278","-0.205372","-0.357486","-0.911058","0.964667","0.0830432","-0.250042"
"6","1961166250623","9.47095","-0.748215","-1.21655","0","0","0","0.16122","-0.925462","0.342825","-0.199301","-0.370742","-0.907099","0.966585","0.0779172","-0.244217"
"6","1961182913221","9.35599","-0.499161","-1.15909","0","0","0","0.155974","-0.898394","0.41056","-0.182985","-0.434733","-0.881773","0.970664","0.0624075","-0.2322"
"6","1961200186170","9.10693","0.152222","-1.40814","0","0","0","0.15844","-0.878421","0.450859","-0.173183","-0.474272","-0.863177","0.972062","0.0586809","-0.227271"
"6","1961216055311","9.52841","0.49707","-1.48477","0","0","0","0.156172","-0.877539","0.45336","-0.169659","-0.476003","-0.862924","0.97305","0.0578475","-0.223221"
"6","1961232626356","10.3522","0.841919","-1.73383","0","0","0","0.152725","-0.883879","0.442078","-0.167921","-0.46403","-0.869758","0.973898","0.0585997","-0.219291"
"6","1961249411024","11.0802","1.47415","-2.13615","0","0","0","0.147501","-0.902961","0.403614","-0.17109","-0.42522","-0.888772","0.974152","0.0620408","-0.217208"
"6","1961266195692","11.5592","1.4933","-1.52309","0","0","0","0.153414","-0.893793","0.421424","-0.162123","-0.44346","-0.88151","0.974772","0.0669134","-0.212937"
"6","1961282980360","12.1531","0.592865","-1.38898","0","0","0","0.14934","-0.899201","0.41126","-0.157915","-0.432275","-0.887807","0.976094","0.0676412","-0.206553"
"6","1961299734510","12.2489","-0.403366","-0.948334","0","0","0","0.153573","-0.861648","0.483713","-0.141463","-0.503649","-0.852247","0.977959","0.0624544","-0.199238"
"6","1961316549696","12.1531","-0.0776672","0.0287323","0","0","0","0.14102","-0.868873","0.474525","-0.136153","-0.491781","-0.860008","0.9806","0.05667","-0.187651"
"6","1961333334364","11.9998","0.286331","0.335266","0","0","0","0.134989","-0.858859","0.494105","-0.122847","-0.509329","-0.851759","0.983202","0.0542784","-0.174261"
"6","1961350119032","12.383","-0.0585175","-1.04413","0","0","0","0.128933","-0.855867","0.500867","-0.115994","-0.514632","-0.849529","0.984846","0.051435","-0.165628"
"6","1961366903700","13.4176","-0.115982","-3.89871","0","0","0","0.126865","-0.859658","0.494867","-0.123375","-0.508699","-0.852058","0.984217","0.0470419","-0.170597"
"6","1961383688368","13.7816","-1.59117","-3.4006","0","0","0","0.128132","-0.837872","0.530615","-0.129241","-0.544569","-0.828699","0.9833","0.0376053","-0.178064"
"6","1961400473036","12.4788","-2.01266","-4.78","0","0","0","0.119862","-0.846978","0.51794","-0.146126","-0.53107","-0.834633","0.981978","0.0243565","-0.18742"
"6","1961417257704","11.1569","-1.85939","-5.39307","0","0","0","0.116172","-0.855297","0.504947","-0.167035","-0.517972","-0.83893","0.979083","0.0131161","-0.203039"
"6","1961434042372","8.76208","-0.78653","-5.16316","0","0","0","0.123068","-0.843612","0.52266","-0.181311","-0.536912","-0.823924","0.975695","0.00663529","-0.219033"
"6","1961450827039","7.15279","0.61203","-5.14401","0","0","0","0.124486","-0.865502","0.48519","-0.200788","-0.500851","-0.841922","0.971693","0.00738709","-0.236131"
"6","1961467611707","6.8271","2.45122","-4.58841","0","0","0","0.135078","-0.877543","0.460079","-0.212939","-0.479195","-0.851487","0.967683","0.0170485","-0.251591"
"6","1961484396375","7.61259","4.75021","-3.53471","0","0","0","0.148313","-0.896439","0.417613","-0.218","-0.441531","-0.87036","0.964613","0.0380465","-0.260909"
"6","1961501181043","8.16818","5.76561","-3.36229","0","0","0","0.136174","-0.919236","0.369407","-0.225782","-0.391863","-0.891889","0.964613","0.0380465","-0.260909"
"6","1961517935194","7.24858","3.60072","-3.53471","0","0","0","0.171166","-0.939398","0.297041","-0.229904","-0.33125","-0.915105","0.958043","0.0883444","-0.27267"
"6","1961534719862","8.76208","-0.211777","-3.13239","0","0","0","0.169527","-0.943914","0.283348","-0.236476","-0.318071","-0.918101","0.956734","0.0886383","-0.277134"
"6","1961551535047","10.6971","-1.3996","-3.61134","0","0","0","0.168926","-0.931136","0.323188","-0.235657","-0.356546","-0.904069","0.957042","0.0765591","-0.279659"
"6","1961568319715","11.0419","-0.690735","-4.01367","0","0","0","0.163197","-0.92913","0.33179","-0.24159","-0.363695","-0.899644","0.956557","0.0666621","-0.283823"
"6","1961585104383","10.6204","0.420441","-3.72629","0","0","0","0.16859","-0.918099","0.35871","-0.24087","-0.391259","-0.888199","0.955803","0.063339","-0.287105"
"6","1961601858534","9.33684","1.5891","-2.99828","0","0","0","0.165062","-0.928813","0.331755","-0.245631","-0.364483","-0.89823","0.955207","0.0667741","-0.288308"
"6","1961618643202","8.09155","1.99142","-2.92165","0","0","0","0.178314","-0.9187","0.352413","-0.240503","-0.387982","-0.889735","0.954129","0.0738955","-0.290133"
"6","1961635458387","7.57426","1.76152","-2.86417","0","0","0","0.183475","-0.921262","0.342947","-0.24189","-0.380453","-0.892605","0.952799","0.0808155","-0.292648"
"6","1961652243055","7.72754","0.918564","-2.59595","0","0","0","0.180756","-0.929534","0.321393","-0.246417","-0.359154","-0.90016","0.952159","0.0835126","-0.293972"
"6","1961669027723","8.66629","0.382126","-1.86794","0","0","0","0.18813","-0.91414","0.359104","-0.236624","-0.397049","-0.88677","0.953214","0.0818553","-0.291005"
"6","1961685781873","8.93451","1.07182","-1.82962","0","0","0","0.174948","-0.932525","0.315895","-0.24128","-0.351666","-0.904497","0.954556","0.0820213","-0.286523"
"6","1961702597059","8.66629","2.01057","-2.13615","0","0","0","0.192235","-0.910671","0.365684","-0.226276","-0.403725","-0.886456","0.954906","0.0876622","-0.283673"
"6","1961719351209","8.26398","2.66196","-1.82962","0","0","0","0.19197","-0.923391","0.332409","-0.226999","-0.371302","-0.900337","0.954787","0.097381","-0.280888"
"6","1961736166395","8.14902","2.91103","-1.13992","0","0","0","0.197053","-0.92777","0.31688","-0.220829","-0.356914","-0.90766","0.955199","0.108881","-0.27521"
"6","1961752951063","8.09155","2.70029","-0.910019","0","0","0","0.209901","-0.916526","0.340472","-0.204441","-0.381675","-0.901403","0.95611","0.119599","-0.267489"
"6","1961769735731","8.49387","2.16385","-0.603485","0","0","0","0.206038","-0.929645","0.305464","-0.201298","-0.345752","-0.91648","0.957616","0.127341","-0.258374"
"6","1961786489881","9.20273","1.28256","-0.967499","0","0","0","0.208767","-0.922338","0.32513","-0.188028","-0.364108","-0.912179","0.95972","0.129299","-0.249439"
"6","1961803274549","9.43263","0.956879","-1.92542","0","0","0","0.198041","-0.937119","0.287381","-0.19255","-0.324669","-0.926021","0.961095","0.128055","-0.24474"
"6","1961820089735","9.16441","1.1293","-2.67259","0","0","0","0.208592","-0.91661","0.34105","-0.18144","-0.378936","-0.907462","0.961025","0.12741","-0.245353"
"6","1961836874403","9.70084","1.01434","-3.41975","0","0","0","0.206103","-0.922767","0.325613","-0.189772","-0.364132","-0.911808","0.959952","0.126134","-0.250164"
"6","1961853659071","11.9807","1.4933","-2.50017","0","0","0","0.195648","-0.939368","0.281621","-0.199947","-0.319348","-0.926303","0.960075","0.12492","-0.250303"
"6","1961870413221","13.3601","2.10637","-0.296951","0","0","0","0.199948","-0.927168","0.316827","-0.179817","-0.352588","-0.918339","0.963165","0.12665","-0.237221"
"6","1961887228407","13.1302","2.45122","0.66095","0","0","0","0.197895","-0.924762","0.325043","-0.158852","-0.357474","-0.920314","0.967266","0.130492","-0.217642"
"6","1961904013075","11.8657","2.68112","0.603485","0","0","0","0.186589","-0.947604","0.25929","-0.15421","-0.288903","-0.944857","0.97026","0.136315","-0.200036"
"6","1961920828260","11.4826","3.1026","-0.373596","0","0","0","0.19436","-0.937437","0.288853","-0.134083","-0.317094","-0.938868","0.971723","0.143748","-0.187325"
"6","1961937551893","11.7891","3.4283","-4.55009","0","0","0","0.20734","-0.928684","0.3075","-0.130804","-0.337826","-0.932075","0.969485","0.153034","-0.19152"
"6","1961954367079","14.567","2.96849","-7.84532","0","0","0","0.221114","-0.921117","0.320395","-0.14932","-0.356628","-0.922236","0.963749","0.156078","-0.216396"
"6","1961971151747","13.0727","3.02597","-6.63835","0","0","0","0.227442","-0.926883","0.298592","-0.170352","-0.339771","-0.924952","0.958776","0.159507","-0.235174"
"6","1961987936414","11.1569","2.33627","-5.91034","0","0","0","0.222567","-0.946282","0.234552","-0.199683","-0.279733","-0.939083","0.954249","0.162173","-0.251215"
"6","1962004721082","9.73917","0.439606","-3.72629","0","0","0","0.219967","-0.948386","0.228425","-0.209912","-0.274692","-0.93834","0.952655","0.158455","-0.259501"
"6","1962021475233","7.99576","-1.51454","-2.30858","0","0","0","0.227813","-0.921264","0.315235","-0.194771","-0.36032","-0.912269","0.954026","0.146428","-0.261521"
"6","1962038259901","7.05699","-2.70236","-2.05952","0","0","0","0.207587","-0.930817","0.300812","-0.205989","-0.34221","-0.916766","0.956282","0.128345","-0.262776"
"6","1962055075086","7.26775","-2.70236","-2.17447","0","0","0","0.198668","-0.918323","0.342365","-0.205116","-0.380551","-0.901725","0.958362","0.10892","-0.263966"
"6","1962071859754","8.87703","-1.05475","-2.90248","0","0","0","0.195394","-0.903616","0.381181","-0.204427","-0.417662","-0.885307","0.959182","0.09506","-0.266332"
"6","1962088644422","9.91159","2.183","-3.4006","0","0","0","0.197644","-0.903063","0.381331","-0.205423","-0.418523","-0.884669","0.958508","0.0965151","-0.268229"
"6","1962105429090","9.0303","2.70029","-3.95619","0","0","0","0.199601","-0.917362","0.344392","-0.215526","-0.383959","-0.897844","0.955881","0.104985","-0.274354"
"6","1962122183241","8.2065","2.85355","-3.41975","0","0","0","0.215663","-0.907085","0.361506","-0.212454","-0.404938","-0.889319","0.953076","0.11499","-0.280043"
"6","1962138998426","7.84248","2.20216","-2.65343","0","0","0","0.211568","-0.927048","0.309551","-0.22419","-0.354307","-0.907858","0.951303","0.122676","-0.282795"
"6","1962155783094","7.89996","1.20593","-2.15532","0","0","0","0.208271","-0.935272","0.286162","-0.228439","-0.331001","-0.915562","0.95102","0.125314","-0.28259"
"6","1962172567762","7.8808","-0.154312","-2.19363","0","0","0","0.189886","-0.954189","0.231229","-0.240775","-0.273579","-0.931226","0.951825","0.121152","-0.281693"
"6","1962189352430","8.26398","-0.748215","-2.95996","0","0","0","0.199775","-0.931949","0.302589","-0.230484","-0.344845","-0.909923","0.952348","0.112038","-0.283691"
"6","1962206106581","8.60883","-1.36128","-2.9408","0","0","0","0.18505","-0.93923","0.289143","-0.240039","-0.328512","-0.913489","0.952963","0.0996354","-0.286243"
"6","1962222891248","8.4364","-1.59117","-2.36606","0","0","0","0.181975","-0.926996","0.327968","-0.237079","-0.36506","-0.900292","0.954295","0.0860763","-0.286203"
"6","1962239675916","8.95367","-1.01643","-1.63805","0","0","0","0.156805","-0.947535","0.27855","-0.246148","-0.310633","-0.918106","0.956464","0.0753989","-0.281943"
"6","1962256491102","9.33684","-0.269257","-1.52309","0","0","0","0.170229","-0.916138","0.362923","-0.227973","-0.39492","-0.889981","0.958671","0.068764","-0.276082"
"6","1962273245252","9.26021","-0.0968323","-1.44646","0","0","0","0.152359","-0.935669","0.318291","-0.231736","-0.346894","-0.908825","0.960773","0.0647087","-0.269681"
"6","1962290121473","8.97282","-0.307571","-1.08244","0","0","0","0.155561","-0.919746","0.360372","-0.219905","-0.387903","-0.895083","0.963038","0.059992","-0.262599"
"6","1962306875623","8.55135","-0.441681","-0.948334","0","0","0","0.148357","-0.919535","0.36393","-0.214872","-0.389183","-0.895749","0.965308","0.0546926","-0.25532"
"6","1962323660291","8.45555","-0.690735","-1.08244","0","0","0","0.137408","-0.925218","0.353683","-0.213305","-0.376332","-0.901596","0.967274","0.0484443","-0.249065"
"6","1962340963758","8.74294","-0.863159","-1.10161","0","0","0","0.128654","-0.925368","0.35657","-0.210085","-0.37683","-0.902144","0.969181","0.0411542","-0.242887"
"6","1962357778944","8.95367","-0.863159","-0.986664","0","0","0","0.114326","-0.934916","0.335949","-0.209254","-0.353242","-0.911829","0.971155","0.0339466","-0.23602"
"6","1962374502577","9.75832","-0.0968323","-1.81047","0","0","0","0.124724","-0.903992","0.408954","-0.197011","-0.426529","-0.882757","0.972435","0.0295322","-0.231295"
"6","1962390798963","10.3714","1.43584","-2.86417","0","0","0","0.121888","-0.913704","0.387669","-0.198757","-0.405139","-0.892389","0.97244","0.0317197","-0.230987"
"6","1962408102430","10.5821","1.74237","-2.99828","0","0","0","0.131306","-0.908864","0.395886","-0.19666","-0.415288","-0.888179","0.97164","0.0387682","-0.233266"
"6","1962424887098","11.9998","2.20216","-2.67259","0","0","0","0.124954","-0.93728","0.325413","-0.203732","-0.345233","-0.916137","0.97102","0.0481778","-0.234092"
"6","1962441122450","14.318","-0.422516","-1.06329","0","0","0","0.112761","-0.95048","0.289606","-0.199474","-0.307186","-0.930509","0.973393","0.0471566","-0.224235"
"6","1962457907118","13.111","-1.87856","0.431061","0","0","0","0.113512","-0.919472","0.376412","-0.178593","-0.391573","-0.902649","0.977353","0.0352372","-0.20866"
"6","1962474691786","12.1914","-1.93602","1.25487","0","0","0","0.106711","-0.887079","0.449115","-0.157854","-0.46108","-0.873205","0.98168","0.0222864","-0.189231"
"6","1962491537489","11.3293","-0.7099","0.143677","0","0","0","0.0939297","-0.885529","0.45499","-0.147534","-0.464346","-0.873279","0.984587","0.0149003","-0.174261"
"6","1962508291639","12.3638","0.075592","-4.81831","0","0","0","0.0824005","-0.919362","0.384686","-0.160638","-0.393204","-0.90531","0.983568","0.012803","-0.180084"
"6","1962525045789","15.2567","1.97226","-8.22849","0","0","0","0.101576","-0.919323","0.380169","-0.182237","-0.392874","-0.901354","0.977994","0.0222755","-0.207442"
"6","1962541830457","14.0689","-1.78276","-7.02151","0","0","0","0.0918207","-0.939886","0.328911","-0.209609","-0.341149","-0.916341","0.973464","0.0151965","-0.228333"
"6","1962558615125","9.29852","-1.41875","-6.40845","0","0","0","0.0911071","-0.939271","0.330862","-0.230316","-0.34311","-0.910621","0.968842","0.00676135","-0.247589"
"6","1962575399793","7.70837","-0.479996","-6.04445","0","0","0","0.082313","-0.953713","0.289234","-0.254342","-0.300711","-0.919175","0.963605","0.00209585","-0.267321"
"6","1962592184461","7.65091","1.70406","-5.50801","0","0","0","0.0782154","-0.968061","0.238201","-0.273523","-0.250602","-0.928646","0.95868","0.00748091","-0.284388"
"6","1962608969129","7.84248","3.94557","-5.12485","0","0","0","0.0810879","-0.980413","0.179484","-0.28802","-0.195444","-0.937468","0.954185","0.0243222","-0.298227"
"6","1962625753797","8.34061","5.38245","-5.27812","0","0","0","0.0953807","-0.986318","0.134459","-0.299533","-0.157252","-0.941038","0.949306","0.049482","-0.310434"
"6","1962642538465","8.87703","4.84601","-4.70337","0","0","0","0.120302","-0.984433","0.128139","-0.305545","-0.159528","-0.938719","0.944547","0.0737771","-0.31998"
"6","1962659323133","9.01114","1.83815","-3.01744","0","0","0","0.102838","-0.993908","0.0396345","-0.316618","-0.0704812","-0.945931","0.942962","0.0847287","-0.321937"
"6","1962676107801","10.6588","-2.33835","-2.50017","0","0","0","0.108921","-0.988577","0.104177","-0.305709","-0.133034","-0.942785","0.945874","0.070841","-0.316707"
"6","1962692892469","10.4672","-1.91687","-3.74545","0","0","0","0.10113","-0.986157","0.131406","-0.304819","-0.156444","-0.939474","0.947026","0.054954","-0.31642"
"6","1962709707655","8.70461","-0.345886","-4.12862","0","0","0","0.108801","-0.978742","0.173858","-0.306388","-0.199399","-0.930788","0.945668","0.0480025","-0.32157"
"6","1962726492323","7.65091","0.650345","-3.8604","0","0","0","0.12076","-0.971189","0.205448","-0.30849","-0.23343","-0.922141","0.943531","0.0479795","-0.327791"
"6","1962743276991","7.17195","1.56995","-3.38144","0","0","0","0.121565","-0.974458","0.18882","-0.314015","-0.218217","-0.924","0.941603","0.0530342","-0.332522"
"6","1962760061659","6.94205","2.35542","-3.03659","0","0","0","0.138473","-0.968332","0.207747","-0.311909","-0.241734","-0.918846","0.939967","0.0624371","-0.335505"
"6","1962776815809","7.26775","2.4129","-2.50017","0","0","0","0.134894","-0.977337","0.163146","-0.316385","-0.198516","-0.927627","0.938991","0.0735148","-0.335993"
"6","1962793630995","7.61259","2.37459","-2.76837","0","0","0","0.14418","-0.976488","0.160263","-0.314114","-0.198742","-0.92835","0.938373","0.083509","-0.335383"
"6","1962810415663","8.53218","1.4933","-2.86417","0","0","0","0.151081","-0.974967","0.163135","-0.311656","-0.203592","-0.928128","0.938107","0.0893803","-0.334613"
"6","1962827200331","8.66629","1.34004","-2.50017","0","0","0","0.151096","-0.976522","0.15354","-0.310732","-0.19437","-0.930412","0.938411","0.0928717","-0.332805"
"6","1962843984998","8.4364","1.37836","-2.09784","0","0","0","0.139628","-0.983811","0.11234","-0.31294","-0.151479","-0.937615","0.939453","0.0957614","-0.329024"
"6","1962861257948","8.18733","1.43584","-2.09784","0","0","0","0.150726","-0.978821","0.138529","-0.304291","-0.179263","-0.935559","0.940579","0.0988604","-0.324866"
"6","1962878073133","8.18733","2.01057","-2.27026","0","0","0","0.151035","-0.980865","0.122852","-0.302755","-0.164204","-0.938817","0.941025","0.1046","-0.321762"
"6","1962894857801","8.35976","2.87271","-1.6572","0","0","0","0.173401","-0.97122","0.163289","-0.288655","-0.208638","-0.934424","0.9416","0.114896","-0.316526"
"6","1962911093153","8.24481","2.56618","-0.795074","0","0","0","0.160316","-0.982704","0.0926933","-0.289767","-0.136625","-0.947295","0.943575","0.125007","-0.306659"
"6","1962927908338","8.16818","1.87648","-1.38898","0","0","0","0.158233","-0.983659","0.0858957","-0.29091","-0.129573","-0.947936","0.943575","0.125007","-0.306659"
"6","1962944662489","8.81956","1.43584","-2.8067","0","0","0","0.169001","-0.98064","0.0989085","-0.277578","-0.143646","-0.949903","0.945721","0.13308","-0.296481"
"6","1962961477674","9.70084","1.34004","-3.53471","0","0","0","0.169327","-0.980696","0.0977958","-0.280158","-0.143031","-0.949238","0.944902","0.133333","-0.298969"
"6","1962978262342","10.2756","1.09099","-4.39684","0","0","0","0.147811","-0.988526","0.0311241","-0.29697","-0.0743785","-0.951985","0.943377","0.131471","-0.304557"
"6","1962995016493","12.7279","1.99142","-3.22818","0","0","0","0.147811","-0.988526","0.0311241","-0.29697","-0.0743785","-0.951985","0.943377","0.131471","-0.304557"
"6","1963011831678","14.5287","2.47038","-0.411911","0","0","0","0.145816","-0.989162","0.0172178","-0.282056","-0.0582479","-0.957628","0.948252","0.134781","-0.287493"
"6","1963028616346","14.3563","2.43207","0.929169","0","0","0","0.151144","-0.988058","0.0299505","-0.254654","-0.0681947","-0.964625","0.955148","0.13817","-0.26192"
"6","1963045889295","12.9386","1.79984","0.0287323","0","0","0","0.148855","-0.988626","0.0214537","-0.236039","-0.0565913","-0.970094","0.960275","0.13934","-0.241778"
"6","1963062185682","12.019","0.362961","-1.92542","0","0","0","0.143207","-0.989489","0.0200763","-0.227931","-0.0527144","-0.972249","0.963088","0.134657","-0.233084"
"6","1963078939832","12.6129","0.152222","-6.90657","0","0","0","0.148425","-0.985781","0.0787772","-0.231035","-0.11202","-0.966475","0.961558","0.125249","-0.244376"
"6","1963095724500","13.6091","2.89186","-8.28596","0","0","0","0.135979","-0.990535","0.0187355","-0.262814","-0.0542993","-0.963318","0.955217","0.126067","-0.26771"
"6","1963112509168","11.0036","2.89186","-7.69206","0","0","0","0.133937","-0.990887","-0.0142907","-0.288117","-0.0251386","-0.957265","0.948182","0.132331","-0.288858"
"6","1963129324354","9.72","2.01057","-6.50424","0","0","0","0.135291","-0.99051","-0.0241936","-0.307271","-0.01873","-0.951438","0.941956","0.136155","-0.306889"
"6","1963146078504","9.26021","0.228867","-4.33936","0","0","0","0.131371","-0.990669","-0.0362946","-0.308967","-0.00612854","-0.951053","0.941956","0.136155","-0.306889"
"6","1963162863172","8.24481","-1.41875","-2.97913","0","0","0","0.147129","-0.987454","0.0573353","-0.306828","-0.10067","-0.946426","0.940324","0.121654","-0.31779"
"6","1963179647840","6.96121","-2.33835","-3.03659","0","0","0","0.131154","-0.989629","0.0585889","-0.3111","-0.0971997","-0.945393","0.941284","0.105765","-0.320622"
"6","1963196432508","6.96121","-1.55286","-3.20901","0","0","0","0.112915","-0.992486","0.0471395","-0.318355","-0.0810795","-0.944498","0.941223","0.091641","-0.325118"
"6","1963213217176","8.01491","0.458755","-3.07491","0","0","0","0.11969","-0.989525","0.0807083","-0.317121","-0.115139","-0.94137","0.940802","0.0870784","-0.32758"
"6","1963230520643","9.85411","2.56618","-3.11322","0","0","0","0.126772","-0.988396","0.0836763","-0.31468","-0.120073","-0.941573","0.940694","0.0930341","-0.326251"
"6","1963246755995","8.60883","2.66196","-4.6842","0","0","0","0.135597","-0.987755","0.0771529","-0.321181","-0.117491","-0.939701","0.93726","0.102641","-0.333179"
"6","1963264120497","8.22565","2.37459","-4.07114","0","0","0","0.122802","-0.992336","0.01377","-0.335354","-0.0545511","-0.940512","0.934054","0.110879","-0.339482"
"6","1963280355848","8.01491","1.51247","-3.57303","0","0","0","0.113658","-0.993215","-0.0245977","-0.343629","-0.0160687","-0.938968","0.932202","0.115174","-0.343124"
"6","1963297140516","7.82333","0.535385","-3.63051","0","0","0","0.113658","-0.993215","-0.0245977","-0.343629","-0.0160687","-0.938968","0.932202","0.115174","-0.343124"
"6","1963313925184","7.8808","-0.441681","-3.38144","0","0","0","0.117388","-0.993067","0.00610854","-0.346511","-0.0467234","-0.936881","0.930672","0.107862","-0.349594"
"6","1963330709852","7.72754","-1.22717","-2.95996","0","0","0","0.113486","-0.993198","0.0260526","-0.345846","-0.0640722","-0.936101","0.931403","0.097224","-0.350765"
"6","1963347494520","7.61259","-1.28465","-1.98289","0","0","0","0.0984571","-0.994949","0.0195408","-0.344793","-0.0525264","-0.937208","0.933501","0.0855372","-0.348224"
"6","1963364279188","7.78502","-0.882324","-1.40814","0","0","0","0.108113","-0.991282","0.0753073","-0.332825","-0.107471","-0.936844","0.936771","0.0762209","-0.341542"
"6","1963381582655","8.64714","-0.307571","-2.71091","0","0","0","0.088393","-0.995239","0.0410588","-0.332632","-0.0683466","-0.940577","0.938905","0.0694829","-0.33709"
"6","1963397848524","9.1261","-0.0010376","-3.13239","0","0","0","0.108253","-0.987893","0.111121","-0.325159","-0.140815","-0.935117","0.939443","0.0650973","-0.336466"
"6","1963414633192","9.22188","0.305496","-2.97913","0","0","0","0.0963837","-0.991749","0.0845224","-0.327231","-0.11177","-0.938311","0.940016","0.0627796","-0.335303"
"6","1963431448377","9.41347","0.305496","-2.21278","0","0","0","0.0967958","-0.99102","0.0922515","-0.32204","-0.118885","-0.939232","0.941765","0.0612051","-0.330655"
"6","1963448202528","9.10693","-0.269257","-1.94456","0","0","0","0.0900688","-0.992163","0.0866065","-0.317133","-0.111005","-0.941862","0.944095","0.0573666","-0.324645"
"6","1963464987196","8.89619","-0.920639","-1.6572","0","0","0","0.0886118","-0.990204","0.107906","-0.309472","-0.13034","-0.941933","0.946771","0.0500725","-0.31799"
"6","1963481771864","8.95367","-0.958954","-1.6572","0","0","0","0.0857493","-0.9879","0.129229","-0.301753","-0.149366","-0.941613","0.949522","0.0417473","-0.31091"
"6","1963498556532","8.95367","-0.556625","-2.28943","0","0","0","0.0870026","-0.983912","0.15604","-0.295849","-0.175086","-0.939052","0.951264","0.0355356","-0.306322"
"6","1963515859998","9.43263","-0.115982","-2.97913","0","0","0","0.0709298","-0.990525","0.117594","-0.29838","-0.133563","-0.945056","0.951808","0.0319447","-0.305027"
"6","1963532125868","10.3331","1.18677","-3.80293","0","0","0","0.0778289","-0.988669","0.128361","-0.299462","-0.14599","-0.942873","0.950929","0.0349434","-0.307431"
"6","1963548910536","10.8695","2.06805","-3.26649","0","0","0","0.0965961","-0.982258","0.160745","-0.295419","-0.182517","-0.937771","0.950472","0.0430979","-0.307808"
"6","1963565695204","12.5171","1.99142","-0.871704","0","0","0","0.0939305","-0.983862","0.152289","-0.296278","-0.173659","-0.939182","0.950472","0.0430979","-0.307808"
"6","1963582479872","14.0306","-0.59494","0.373581","0","0","0","0.0982428","-0.980775","0.168611","-0.261015","-0.188894","-0.946673","0.960323","0.0489939","-0.274554"
"6","1963599813856","12.9769","-1.53371","1.15907","0","0","0","0.0890086","-0.977325","0.192126","-0.237364","-0.208147","-0.948859","0.967334","0.038853","-0.250508"
"6","1963616049207","11.7508","-2.05098","0.450211","0","0","0","0.07872","-0.971443","0.223835","-0.218837","-0.235895","-0.946818","0.972581","0.02555","-0.231158"
"6","1963632833875","12.862","-1.32297","-1.77214","0","0","0","0.0555706","-0.983169","0.174041","-0.214611","-0.181998","-0.959593","0.975118","0.015974","-0.221112"
"6","1963649618543","14.8736","1.51247","-6.56172","0","0","0","0.0590383","-0.983014","0.173778","-0.224288","-0.182693","-0.957245","0.972733","0.0175379","-0.231264"
"6","1963666403211","13.5325","-2.52994","-6.04445","0","0","0","0.0599368","-0.983159","0.172642","-0.23883","-0.182054","-0.953843","0.96921","0.0159382","-0.245719"
"6","1963683218397","10.2181","-2.35751","-7.05983","0","0","0","0.0578202","-0.976723","0.206565","-0.257262","-0.214501","-0.942235","0.96461","0.00133882","-0.263676"
"6","1963699972547","8.35976","-1.32297","-7.09814","0","0","0","0.0489991","-0.980751","0.189014","-0.282104","-0.195126","-0.939331","0.958132","-0.00729542","-0.286235"
"6","1963716757215","7.99576","0.592865","-6.48509","0","0","0","0.0576135","-0.977824","0.20135","-0.300584","-0.209316","-0.930503","0.952014","-0.00691289","-0.305977"
"6","1963733541883","7.84248","3.12177","-5.79539","0","0","0","0.0482053","-0.991098","0.1241","-0.31868","-0.133012","-0.938483","0.946636","0.00569189","-0.322255"
"6","1963750326551","7.61259","5.47823","-5.18233","0","0","0","0.0847587","-0.985467","0.147208","-0.32567","-0.167024","-0.930614","0.941677","0.0309364","-0.335094"
"6","1963767141737","7.95744","5.80392","-4.89494","0","0","0","0.074529","-0.996788","0.0292972","-0.341801","-0.0531334","-0.938269","0.936812","0.0599145","-0.344664"
"6","1963783895887","7.99576","3.16008","-3.99451","0","0","0","0.0806494","-0.99671","-0.00810568","-0.350197","-0.0207208","-0.936447","0.933198","0.0783625","-0.350715"
"6","1963800680555","8.95367","-0.460846","-2.51932","0","0","0","0.0900215","-0.995794","0.0170364","-0.347905","-0.0474702","-0.936327","0.933198","0.0783625","-0.350715"
"6","1963817495741","9.93074","-1.45708","-3.55386","0","0","0","0.0793788","-0.996805","-0.00890307","-0.348799","-0.0194071","-0.936997","0.93383","0.077483","-0.349225"
"6","1963834249891","8.95367","0.228867","-4.85663","0","0","0","0.0902849","-0.993345","0.0715134","-0.345959","-0.0986169","-0.933053","0.933896","0.0594999","-0.35256"
"6","1963851583875","7.99576","1.28256","-4.14778","0","0","0","0.0920822","-0.993451","0.0676464","-0.352059","-0.0960287","-0.931039","0.931437","0.0619166","-0.358595"
"6","1963868368543","7.30606","1.79984","-3.13239","0","0","0","0.0921655","-0.994449","0.0507621","-0.3557","-0.0804961","-0.931127","0.930045","0.0677617","-0.361144"
"6","1963884603895","7.2869","1.95311","-3.03659","0","0","0","0.0840904","-0.996016","0.0296723","-0.357695","-0.0579653","-0.932038","0.930045","0.0677617","-0.361144"
"6","1963901388563","7.36353","1.89563","-2.82585","0","0","0","0.0860979","-0.996181","0.0145463","-0.3597","-0.0446972","-0.931997","0.929087","0.0750107","-0.362174"
"6","1963918692030","7.63174","1.66573","-2.71091","0","0","0","0.105636","-0.993989","0.0287535","-0.356289","-0.0648285","-0.932124","0.928385","0.0882214","-0.360996"
"6","1963934957899","8.26398","1.51247","-2.55763","0","0","0","0.114894","-0.99196","0.0530576","-0.353412","-0.090734","-0.931057","0.928385","0.0882214","-0.360996"
"6","1963951742567","9.06862","1.55078","-2.51932","0","0","0","0.115907","-0.992246","0.0448801","-0.350827","-0.0831696","-0.93274","0.92924","0.092366","-0.357746"
"6","1963968527235","8.99199","1.819","-2.38521","0","0","0","0.125712","-0.990895","0.0482063","-0.341398","-0.0888337","-0.935712","0.931474","0.101172","-0.349457"
"6","1963985311903","8.5705","2.10637","-2.15532","0","0","0","0.127645","-0.991127","0.0370707","-0.336803","-0.078471","-0.9383","0.932883","0.107284","-0.34383"
"6","1964002127088","8.09155","2.35542","-2.07867","0","0","0","0.104461","-0.993287","-0.0496883","-0.342493","0.0109764","-0.939456","0.933695","0.115155","-0.339047"
"6","1964018881239","8.24481","2.75775","-1.6572","0","0","0","0.128152","-0.991682","-0.0119614","-0.331316","-0.0314409","-0.942996","0.934776","0.12481","-0.33259"
"6","1964035665907","8.45555","2.70029","-1.33151","0","0","0","0.128966","-0.990923","-0.0379277","-0.326115","-0.00626118","-0.945309","0.936492","0.134281","-0.323963"
"6","1964052481092","8.51303","2.39375","-1.5614","0","0","0","0.142933","-0.989521","-0.0204498","-0.315546","-0.0259762","-0.948555","0.938084","0.142032","-0.315952"
"6","1964069235243","8.78125","1.70406","-2.09784","0","0","0","0.123312","-0.988189","-0.0909741","-0.320329","0.04713","-0.946133","0.939246","0.145811","-0.310734"
"6","1964086019911","9.24104","0.516235","-2.59595","0","0","0","0.156823","-0.987411","0.0206484","-0.300741","-0.0676578","-0.951303","0.940724","0.142976","-0.307566"
"6","1964102835096","9.68169","-0.345886","-4.24356","0","0","0","0.123482","-0.991163","-0.0484626","-0.315967","0.00702443","-0.948744","0.9407","0.132465","-0.312307"
"6","1964119619764","11.5784","1.93394","-3.03659","0","0","0","0.114167","-0.991074","-0.0688415","-0.318655","0.0291021","-0.947424","0.94097","0.130101","-0.312488"
"6","1964136373914","13.8773","2.45122","-0.258636","0","0","0","0.158652","-0.985523","0.059788","-0.283203","-0.103434","-0.953466","0.945847","0.134338","-0.295513"
"6","1964153189100","14.6437","2.14468","1.12076","0","0","0","0.150275","-0.988119","0.0322303","-0.260381","-0.0710066","-0.962891","0.95374","0.136306","-0.267958"
"6","1964169973768","13.7432","1.47415","-0.488541","0","0","0","0.150275","-0.988119","0.0322303","-0.260381","-0.0710066","-0.962891","0.95374","0.136306","-0.267958"
"6","1964186758436","13.6283","0.324646","-6.0636","0","0","0","0.143795","-0.989478","0.01603","-0.242308","-0.0509094","-0.968863","0.959484","0.135434","-0.247079"
"6","1964203512586","15.7932","1.32088","-10.3167","0","0","0","0.145616","-0.986983","0.0682626","-0.266968","-0.105638","-0.957898","0.952641","0.121261","-0.278875"
"6","1964220297254","14.567","3.67735","-6.42761","0","0","0","0.161956","-0.981886","0.0983392","-0.275344","-0.140662","-0.950999","0.947605","0.126943","-0.293138"
"6","1964237112440","9.14525","3.67735","-6.19771","0","0","0","0.162077","-0.985243","0.0550204","-0.291762","-0.101112","-0.951132","0.942659","0.138104","-0.303844"
"6","1964253866590","8.01491","1.66573","-5.94865","0","0","0","0.170425","-0.983558","0.0597436","-0.305561","-0.110393","-0.945752","0.936797","0.142925","-0.31935"
"6","1964270681776","7.78502","-1.22717","-4.41599","0","0","0","0.159335","-0.986889","0.0257204","-0.311487","-0.0749785","-0.947288","0.936797","0.142925","-0.31935"
"6","1964287435926","8.32144","-3.37289","-3.78377","0","0","0","0.156802","-0.986727","0.0422352","-0.319578","-0.0911554","-0.943165","0.934496","0.134393","-0.32963"
"6","1964304251112","8.55135","-3.54532","-3.4964","0","0","0","0.141267","-0.988291","0.057658","-0.324842","-0.101293","-0.940328","0.935158","0.114108","-0.335348"
"6","1964321005262","8.89619","-1.7636","-3.34312","0","0","0","0.172492","-0.959828","0.221307","-0.304815","-0.26566","-0.914611","0.936661","0.0903051","-0.338394"
"6","1964337820448","9.01114","1.28256","-3.05576","0","0","0","0.156798","-0.960843","0.228463","-0.309598","-0.267484","-0.91247","0.93785","0.0723414","-0.339416"
"6","1964354605116","8.95367","3.31334","-3.47723","0","0","0","0.152899","-0.971039","0.183591","-0.314006","-0.223884","-0.922646","0.937028","0.0834229","-0.339144"
"6","1964371359266","8.16818","3.3325","-4.6842","0","0","0","0.152899","-0.971039","0.183591","-0.314006","-0.223884","-0.922646","0.937028","0.0834229","-0.339144"
"6","1964388143934","7.22942","1.85732","-4.14778","0","0","0","0.184446","-0.961669","0.202908","-0.317765","-0.253711","-0.913595","0.930057","0.104032","-0.352381"
"6","1964404959120","7.15279","0.956879","-2.95996","0","0","0","0.17168","-0.972318","0.158504","-0.328627","-0.2082","-0.921226","0.928725","0.106067","-0.355274"
"6","1964421743788","7.55511","0.0947571","-2.55763","0","0","0","0.176893","-0.967351","0.181494","-0.324038","-0.231361","-0.917317","0.929359","0.103456","-0.354385"
"6","1964438558973","7.7467","-0.844009","-3.01744","0","0","0","0.17622","-0.963454","0.201748","-0.322536","-0.250156","-0.912903","0.930009","0.0958003","-0.354832"
"6","1964455313123","7.42101","-1.51454","-3.53471","0","0","0","0.16999","-0.961255","0.21701","-0.325511","-0.262626","-0.908334","0.930132","0.0837683","-0.357543"
"6","1964472097791","7.68922","-1.3038","-3.22818","0","0","0","0.146072","-0.972174","0.183143","-0.336682","-0.222931","-0.914848","0.930219","0.0719725","-0.359878"
"6","1964488974012","7.91913","-1.01643","-2.92165","0","0","0","0.137627","-0.972563","0.187565","-0.33844","-0.224144","-0.913903","0.930869","0.0622981","-0.360002"
"6","1964505667127","8.37892","-0.57579","-2.44269","0","0","0","0.130672","-0.97296","0.190459","-0.337102","-0.224263","-0.914368","0.932356","0.0552779","-0.357292"
"6","1964522482313","9.33684","0.209702","-2.02121","0","0","0","0.13296","-0.968422","0.210905","-0.328522","-0.243827","-0.912481","0.935091","0.052037","-0.350567"
"6","1964539236463","9.37515","0.49707","-1.96373","0","0","0","0.139673","-0.961367","0.237202","-0.317419","-0.270379","-0.908922","0.937943","0.051659","-0.342921"
"6","1964556051649","8.78125","0.267181","-1.73383","0","0","0","0.14092","-0.958266","0.248733","-0.308885","-0.281256","-0.908562","0.940602","0.0512049","-0.335629"
"6","1964572805799","8.49387","-0.230942","-1.27403","0","0","0","0.134657","-0.959703","0.246654","-0.302448","-0.276849","-0.912074","0.943606","0.0482172","-0.32754"
"6","1964589590467","8.8004","-0.63327","-1.10161","0","0","0","0.133362","-0.953777","0.269301","-0.291635","-0.297464","-0.909101","0.947187","0.0427024","-0.317825"
"6","1964606405653","9.08778","-0.441681","-0.948334","0","0","0","0.110019","-0.96879","0.222131","-0.289348","-0.245026","-0.925332","0.95088","0.0375312","-0.307275"
"6","1964623159803","9.35599","0.113907","-1.31235","0","0","0","0.119561","-0.955252","0.270553","-0.27483","-0.293703","-0.915536","0.95403","0.0351067","-0.297648"
"6","1964639913954","9.26021","0.63118","-1.94456","0","0","0","0.123742","-0.9496","0.288005","-0.266574","-0.311378","-0.912131","0.955838","0.0360945","-0.291669"
"6","1964656729139","9.70084","0.880249","-2.88333","0","0","0","0.11585","-0.960471","0.253127","-0.268371","-0.275633","-0.923041","0.956324","0.0390029","-0.289694"
"6","1964673544325","11.7891","0.976028","-2.65343","0","0","0","0.124253","-0.953801","0.27354","-0.263558","-0.297498","-0.917623","0.956608","0.0419242","-0.288347"
"6","1964690298475","14.4904","-0.0776672","-0.0287476","0","0","0","0.12563","-0.944133","0.304681","-0.242111","-0.327006","-0.913482","0.962081","0.0409936","-0.269667"
"6","1964707083143","13.6283","-1.89771","0.603485","0","0","0","0.122251","-0.922386","0.366414","-0.217221","-0.385099","-0.896947","0.968437","0.0300598","-0.24744"
"6","1964723867811","12.383","-2.24255","0.143677","0","0","0","0.113","-0.901559","0.417638","-0.199702","-0.432361","-0.879308","0.973319","0.0159585","-0.2289"
"6","1964740652479","12.2297","-1.3996","-3.07491","0","0","0","0.0994619","-0.906419","0.410503","-0.200772","-0.422345","-0.88392","0.974576","0.00549882","-0.223991"
"6","1964757437147","15.0268","0.401291","-7.17479","0","0","0","0.0834732","-0.942515","0.32357","-0.22364","-0.334139","-0.915607","0.971091","0.00406537","-0.238676"
"6","1964774252332","15.6208","1.1293","-6.58087","0","0","0","0.0977243","-0.93755","0.333842","-0.235647","-0.347707","-0.907508","0.966913","0.0100169","-0.25491"
"6","1964790975965","13.226","-3.18132","-4.79916","0","0","0","0.0859264","-0.943458","0.320163","-0.247594","-0.331491","-0.91039","0.965046","-0.00104405","-0.262079"
"6","1964807821668","9.26021","-2.87479","-5.83371","0","0","0","0.087212","-0.927516","0.363466","-0.259254","-0.373416","-0.890701","0.961864","-0.0165503","-0.273029"
"6","1964824575819","8.09155","0.861084","-6.96405","0","0","0","0.0838452","-0.940558","0.329121","-0.281621","-0.339186","-0.897576","0.955855","-0.01743","-0.29332"
"6","1964841360487","7.55511","4.34789","-6.65752","0","0","0","0.108085","-0.939896","0.323902","-0.294956","-0.341459","-0.892416","0.949378","0.000920127","-0.314135"
"6","1964858175672","8.1107","6.05298","-5.64212","0","0","0","0.119347","-0.959638","0.25466","-0.30849","-0.27964","-0.909195","0.943711","0.0299498","-0.329413"
"6","1964874929823","8.55135","5.47823","-4.64589","0","0","0","0.128207","-0.973516","0.189288","-0.318067","-0.221143","-0.921916","0.93936","0.0579899","-0.337995"
"6","1964892202772","8.53218","3.73483","-3.20901","0","0","0","0.131639","-0.981465","0.139276","-0.322957","-0.175295","-0.930038","0.937214","0.0774491","-0.340047"
"6","1964908468641","9.54758","0.61203","-1.90625","0","0","0","0.123626","-0.986594","0.106528","-0.3222","-0.141444","-0.936045","0.938565","0.0813958","-0.335366"
"6","1964925253309","10.3522","-1.01643","-2.34689","0","0","0","0.129218","-0.979954","0.151633","-0.310427","-0.185205","-0.932381","0.941774","0.0734091","-0.328136"
"6","1964942037977","8.8004","-0.748215","-4.12862","0","0","0","0.123276","-0.979497","0.159337","-0.313068","-0.190748","-0.930378","0.941696","0.0648105","-0.330164"
"6","1964958822645","7.42101","0.880249","-3.87956","0","0","0","0.125135","-0.979179","0.159843","-0.319866","-0.192323","-0.927738","0.939163","0.0649638","-0.337273"
"6","1964975607313","6.99953","1.30173","-3.1707","0","0","0","0.133725","-0.976122","0.171184","-0.32125","-0.206105","-0.924294","0.937505","0.0686085","-0.34114"
"6","1964992422498","7.05699","1.35919","-2.73006","0","0","0","0.143874","-0.971868","0.186475","-0.319539","-0.223966","-0.920725","0.936587","0.072882","-0.342772"
"6","1965009237684","7.13364","1.64658","-2.88333","0","0","0","0.147288","-0.972592","0.179917","-0.320193","-0.218991","-0.921694","0.935832","0.0781466","-0.343672"
"6","1965026022352","7.30606","1.79984","-2.88333","0","0","0","0.14761","-0.975803","0.161309","-0.322786","-0.201694","-0.924731","0.934891","0.0844309","-0.344748"
"6","1965042776502","7.72754","1.99142","-2.8067","0","0","0","0.161853","-0.969825","0.182325","-0.317758","-0.22614","-0.92081","0.934256","0.0911004","-0.344771"
"6","1965059591688","8.37892","1.89563","-2.46185","0","0","0","0.166909","-0.969472","0.179625","-0.314049","-0.224966","-0.922368","0.93462","0.0975401","-0.342011"
"6","1965076345838","8.58966","2.20216","-2.50017","0","0","0","0.151257","-0.981888","0.114091","-0.320461","-0.157894","-0.93401","0.935107","0.104714","-0.33854"
"6","1965093130506","8.35976","2.12553","-2.13615","0","0","0","0.163371","-0.977792","0.131275","-0.312055","-0.177446","-0.933346","0.935912","0.111517","-0.334114"
"6","1965109945692","8.30229","1.97226","-1.90625","0","0","0","0.191125","-0.960689","0.201368","-0.292794","-0.251608","-0.922478","0.936879","0.117349","-0.329373"
"6","1965126699842","8.76208","2.68112","-1.50394","0","0","0","0.174885","-0.975965","0.130027","-0.297852","-0.178316","-0.93781","0.938456","0.12528","-0.321878"
"6","1965143515028","9.1261","2.48953","-1.04413","0","0","0","0.189986","-0.969033","0.157732","-0.281074","-0.207618","-0.936959","0.940692","0.133675","-0.311815"
"6","1965160269178","8.83871","1.89563","-1.23572","0","0","0","0.178592","-0.977893","0.108769","-0.279938","-0.156478","-0.94718","0.94326","0.13871","-0.301695"
"6","1965177053846","8.85788","1.1293","-2.34689","0","0","0","0.183007","-0.97511","0.125179","-0.272796","-0.172697","-0.946445","0.944506","0.139058","-0.297611"
"6","1965193869032","9.62421","0.822769","-3.05576","0","0","0","0.177993","-0.976874","0.118474","-0.274248","-0.164872","-0.94742","0.945043","0.136143","-0.297252"
"6","1965210623182","10.199","0.841919","-3.57303","0","0","0","0.177993","-0.976874","0.118474","-0.274248","-0.164872","-0.94742","0.945043","0.136143","-0.297252"
"6","1965227407850","10.4863","1.14845","-4.62674","0","0","0","0.180798","-0.972658","0.145767","-0.276899","-0.192553","-0.941409","0.943737","0.129842","-0.304141"
"6","1965244162000","12.8045","2.60449","-1.44646","0","0","0","0.192596","-0.964714","0.179537","-0.261112","-0.22675","-0.938299","0.9459","0.133834","-0.295569"
"6","1965260946668","13.7624","2.16385","0.890854","0","0","0","0.178156","-0.975001","0.132792","-0.247496","-0.175013","-0.952951","0.952369","0.136909","-0.272489"
"6","1965277761854","13.4559","1.45499","1.04413","0","0","0","0.185326","-0.9645","0.188135","-0.213144","-0.226348","-0.95044","0.959283","0.136041","-0.247525"
"6","1965294516004","12.7662","2.183","-1.58057","0","0","0","0.189989","-0.95588","0.224049","-0.193041","-0.260121","-0.946083","0.962621","0.136494","-0.233944"
"6","1965311331190","13.226","2.66196","-7.76869","0","0","0","0.183382","-0.969961","0.159832","-0.217252","-0.198557","-0.955707","0.958735","0.140536","-0.247138"
"6","1965328115858","14.9694","2.94934","-10.47","0","0","0","0.201314","-0.960103","0.194102","-0.239469","-0.240386","-0.940675","0.949804","0.14289","-0.278308"
"6","1965344870008","13.4367","3.29419","-8.4967","0","0","0","0.211191","-0.958278","0.192617","-0.259141","-0.244904","-0.934274","0.942467","0.147395","-0.300051"
"6","1965361685194","10.4289","2.60449","-7.88364","0","0","0","0.210276","-0.964957","0.156978","-0.284986","-0.214096","-0.934316","0.935183","0.151728","-0.320019"
"6","1965378439344","8.70461","-0.499161","-4.64589","0","0","0","0.193233","-0.975038","0.109374","-0.30785","-0.166097","-0.936825","0.931606","0.147355","-0.33226"
"6","1965395254530","7.86165","-2.16592","-2.78754","0","0","0","0.213882","-0.951759","0.220022","-0.288957","-0.276795","-0.916454","0.933145","0.132436","-0.334218"
"6","1965412039198","7.24858","-3.27711","-2.65343","0","0","0","0.216456","-0.93161","0.291975","-0.279304","-0.345656","-0.89583","0.935487","0.112358","-0.335021"
"6","1965428823866","8.12987","-2.66405","-3.15155","0","0","0","0.206958","-0.923699","0.322412","-0.281344","-0.371816","-0.884646","0.937024","0.0923755","-0.336827"
"6","1965445608534","9.14525","-0.192627","-3.4006","0","0","0","0.199608","-0.923474","0.327647","-0.284796","-0.374617","-0.882357","0.937576","0.0828132","-0.337778"
"6","1965462393202","8.99199","2.31711","-4.10945","0","0","0","0.210146","-0.915488","0.343104","-0.28163","-0.392749","-0.875461","0.936228","0.0873466","-0.340364"
"6","1965479177870","8.58966","3.75398","-5.3739","0","0","0","0.216739","-0.924933","0.312285","-0.291285","-0.36659","-0.883609","0.93176","0.100549","-0.348874"
"6","1965495993055","7.99576","3.56241","-5.43138","0","0","0","0.208319","-0.949914","0.232952","-0.31488","-0.290633","-0.903539","0.925988","0.114872","-0.359654"
"6","1965512747206","7.5168","2.37459","-4.33936","0","0","0","0.205839","-0.959209","0.193775","-0.328252","-0.254222","-0.909737","0.92189","0.123652","-0.367191"
"6","1965529562391","7.40184","0.55455","-2.71091","0","0","0","0.210751","-0.955164","0.207958","-0.325194","-0.269124","-0.906544","0.921864","0.123428","-0.367331"
"6","1965546316541","7.59343","-0.307571","-2.5768","0","0","0","0.200604","-0.959553","0.197523","-0.327898","-0.255756","-0.909435","0.923169","0.117669","-0.365941"
"6","1965563101209","7.17195","-0.978119","-2.55763","0","0","0","0.180178","-0.968886","0.169691","-0.334747","-0.222615","-0.915635","0.924922","0.108174","-0.364442"
"6","1965579885877","7.21027","-1.24632","-3.07491","0","0","0","0.183064","-0.960724","0.208562","-0.331082","-0.260002","-0.907074","0.925674","0.0970015","-0.365675"
"6","1965596670545","7.67006","-1.16969","-3.01744","0","0","0","0.17398","-0.961107","0.214485","-0.333868","-0.262476","-0.905339","0.926425","0.085901","-0.366549"
"6","1965613485731","8.5705","-0.767365","-2.59595","0","0","0","0.160358","-0.965401","0.205634","-0.335848","-0.249265","-0.908335","0.928166","0.0765968","-0.3642"
"6","1965630270399","9.18356","-0.269257","-2.17447","0","0","0","0.157382","-0.9624","0.221396","-0.329072","-0.262486","-0.90709","0.931098","0.0699044","-0.358009"
"6","1965647024549","9.37515","0.075592","-1.8871","0","0","0","0.177473","-0.938514","0.296133","-0.308765","-0.338816","-0.888745","0.934434","0.0662932","-0.349911"
"6","1965663809217","8.85788","-0.0585175","-1.75299","0","0","0","0.155184","-0.956235","0.248059","-0.311544","-0.285659","-0.906278","0.937474","0.063358","-0.342239"
"6","1965680593885","8.60883","-0.479996","-1.35066","0","0","0","0.155184","-0.956235","0.248059","-0.311544","-0.285659","-0.906278","0.937474","0.063358","-0.342239"
"6","1965697409071","8.8004","-0.978119","-1.23572","0","0","0","0.13565","-0.959732","0.245997","-0.299459","-0.276396","-0.913198","0.944417","0.0502096","-0.324893"
"6","1965714163221","8.93451","-1.22717","-1.46562","0","0","0","0.144519","-0.939119","0.31172","-0.28431","-0.341153","-0.895981","0.947778","0.0408614","-0.316304"
"6","1965730947889","9.06862","-1.18886","-1.98289","0","0","0","0.137008","-0.935981","0.324296","-0.280186","-0.350631","-0.893618","0.950118","0.03157","-0.310288"
"6","1965747732557","9.62421","-0.65242","-3.13239","0","0","0","0.148597","-0.911587","0.383312","-0.272164","-0.410346","-0.870369","0.950708","0.0250107","-0.309078"
"6","1965764517225","10.4672","0.420441","-3.72629","0","0","0","0.142472","-0.919656","0.365971","-0.276621","-0.392006","-0.87739","0.950359","0.0237682","-0.310246"
"6","1965781301893","10.9845","1.79984","-3.66882","0","0","0","0.14904","-0.919461","0.363838","-0.275184","-0.391979","-0.877853","0.949769","0.0307126","-0.311441"
"6","1965798086561","11.9041","2.27879","-2.46185","0","0","0","0.148885","-0.929734","0.33679","-0.271318","-0.365923","-0.890217","0.950905","0.0411631","-0.306734"
"6","1965814871229","12.6895","-0.345886","-0.641815","0","0","0","0.154776","-0.907563","0.390351","-0.248861","-0.418187","-0.873606","0.956092","0.0380696","-0.290582"
"6","1965831655897","11.8466","-0.824844","0.852539","0","0","0","0.152714","-0.887694","0.43437","-0.226668","-0.459271","-0.85889","0.961925","0.032707","-0.271349"
"6","1965848928846","11.2143","-1.01643","0.910019","0","0","0","0.124888","-0.912813","0.388813","-0.218516","-0.407564","-0.886647","0.967809","0.0257695","-0.250364"
"6","1965865225233","11.8274","-1.18886","-2.07867","0","0","0","0.119588","-0.901749","0.415389","-0.209597","-0.431893","-0.877233","0.970447","0.0178426","-0.240653"
"6","1965882009901","14.1647","1.66573","-7.59627","0","0","0","0.132922","-0.890316","0.43551","-0.217563","-0.454902","-0.863557","0.966953","0.0200354","-0.254166"
"6","1965898794569","16.2147","0.63118","-9.78032","0","0","0","0.11869","-0.939657","0.320869","-0.254187","-0.341139","-0.904993","0.959845","0.0258532","-0.279338"
"6","1965915579237","12.2297","-1.97435","-8.13271","0","0","0","0.114734","-0.941036","0.318257","-0.277569","-0.337981","-0.899291","0.95383","0.0148413","-0.299981"
"6","1965932363905","8.95367","-1.47623","-5.81454","0","0","0","0.117618","-0.93451","0.335943","-0.292929","-0.355887","-0.887433","0.948872","0.00597039","-0.315604"
"6","1965949148573","7.78502","1.93394","-4.89494","0","0","0","0.122703","-0.935111","0.332432","-0.303384","-0.354272","-0.884562","0.944935","0.00768371","-0.327168"
"6","1965965911411","7.91913","4.7119","-4.76083","0","0","0","0.110557","-0.96701","0.229495","-0.319102","-0.253222","-0.913265","0.94125","0.027736","-0.33657"
"6","1965982726597","8.81956","5.55487","-5.91034","0","0","0","0.142615","-0.961854","0.233449","-0.321721","-0.268101","-0.908084","0.936032","0.054401","-0.347684"
"6","1965999480747","10.4672","3.98389","-5.52718","0","0","0","0.127198","-0.983738","0.126807","-0.341496","-0.163463","-0.92556","0.931237","0.0744254","-0.356734"
"6","1966016295933","10.4672","0.841919","-3.30481","0","0","0","0.119625","-0.988459","0.0929398","-0.345252","-0.129186","-0.929576","0.930855","0.0791128","-0.356721"
"6","1966033080601","10.6013","-1.80193","-2.07867","0","0","0","0.137395","-0.975107","0.174036","-0.32861","-0.210624","-0.920681","0.934418","0.0693071","-0.349369"
"6","1966049865269","9.64337","-2.5874","-2.82585","0","0","0","0.133433","-0.96742","0.21516","-0.321685","-0.247624","-0.913893","0.937398","0.0527296","-0.344246"
"6","1966066680454","8.1107","-1.36128","-3.82208","0","0","0","0.127309","-0.96462","0.23087","-0.324604","-0.260466","-0.90928","0.937243","0.0408184","-0.346279"
"6","1966083434604","6.67383","0.362961","-4.10945","0","0","0","0.133039","-0.959602","0.247919","-0.329282","-0.278729","-0.902155","0.934812","0.0383867","-0.353061"
"6","1966100219272","6.38646","1.32088","-3.47723","0","0","0","0.16118","-0.938222","0.306202","-0.323582","-0.343347","-0.881707","0.932371","0.0430323","-0.358933"
"6","1966117034458","6.78879","1.83815","-2.92165","0","0","0","0.157799","-0.948625","0.274246","-0.328865","-0.312357","-0.891225","0.9311","0.0504447","-0.361259"
"6","1966133819126","7.1911","2.39375","-2.481","0","0","0","0.164639","-0.950106","0.264939","-0.326331","-0.305946","-0.894374","0.930807","0.0607909","-0.360419"
"6","1966150634311","7.47849","2.52785","-2.42352","0","0","0","0.155287","-0.965497","0.20905","-0.330824","-0.250223","-0.909914","0.930828","0.0721392","-0.358266"
"6","1966167357944","7.95744","2.5087","-2.481","0","0","0","0.173666","-0.957433","0.23057","-0.320935","-0.276369","-0.905881","0.931043","0.0833226","-0.355269"
"6","1966184142612","8.18733","2.25964","-2.55763","0","0","0","0.185779","-0.952143","0.242714","-0.312585","-0.291451","-0.904073","0.931545","0.0920894","-0.351771"
"6","1966200988315","8.26398","2.0489","-2.38521","0","0","0","0.189176","-0.953773","0.233515","-0.309092","-0.28356","-0.907775","0.932027","0.0995518","-0.348446"
"6","1966217742466","8.30229","1.99142","-2.17447","0","0","0","0.182304","-0.963207","0.197476","-0.310311","-0.24694","-0.918002","0.932991","0.106077","-0.343912"
"6","1966234527134","8.5705","2.45122","-1.61888","0","0","0","0.18401","-0.965477","0.184375","-0.303872","-0.234266","-0.923461","0.934774","0.1139","-0.336489"
"6","1966251800083","8.55135","2.75775","-1.58057","0","0","0","0.186795","-0.968002","0.16757","-0.296819","-0.218211","-0.929668","0.936486","0.123919","-0.328082"
"6","1966268584751","8.45555","2.0489","-1.48477","0","0","0","0.199852","-0.960417","0.19406","-0.282017","-0.246057","-0.92732","0.938363","0.130598","-0.320029"
"6","1966284820102","8.60883","1.39752","-2.50017","0","0","0","0.189095","-0.969905","0.153389","-0.286833","-0.203952","-0.936019","0.939133","0.132999","-0.316766"
"6","1966301635288","9.58589","0.861084","-2.65343","0","0","0","0.178083","-0.976124","0.124372","-0.290847","-0.172959","-0.941006","0.94005","0.131404","-0.314703"
"6","1966318419956","10.2181","0.765289","-2.67259","0","0","0","0.194403","-0.96152","0.19413","-0.274118","-0.243273","-0.930418","0.941842","0.127662","-0.310863"
"6","1966335204624","10.4097","0.650345","-3.34312","0","0","0","0.185006","-0.966357","0.178679","-0.277382","-0.225773","-0.933855","0.942779","0.123207","-0.30982"
"6","1966351989292","12.019","1.819","-3.11322","0","0","0","0.197882","-0.953786","0.226129","-0.265299","-0.274193","-0.924356","0.943641","0.122922","-0.307297"
"6","1966368804477","13.2451","2.56618","-1.61888","0","0","0","0.186892","-0.965329","0.182239","-0.262936","-0.227893","-0.937513","0.946539","0.127297","-0.296411"
"6","1966385558628","13.2068","3.25587","-0.335281","0","0","0","0.189177","-0.965763","0.177523","-0.243616","-0.221296","-0.944288","0.951243","0.13539","-0.277139"
"6","1966402343296","14.4904","2.22133","-4.01367","0","0","0","0.177365","-0.97665","0.12123","-0.247127","-0.163435","-0.955101","0.952612","0.139442","-0.270344"
"6","1966419127964","15.3717","0.343811","-10.8915","0","0","0","0.176017","-0.975447","0.13237","-0.269089","-0.177027","-0.946706","0.946894","0.131017","-0.293642"
"6","1966435912632","14.7203","1.68489","-8.80324","0","0","0","0.192439","-0.962538","0.191019","-0.281821","-0.240666","-0.928793","0.93997","0.124903","-0.317577"
"6","1966452727817","10.1606","3.84978","-6.21687","0","0","0","0.194159","-0.968113","0.158301","-0.297844","-0.211932","-0.930792","0.934661","0.133572","-0.329495"
"6","1966469481968","8.35976","3.48576","-5.39307","0","0","0","0.207268","-0.965873","0.155337","-0.306565","-0.214914","-0.92727","0.929009","0.144573","-0.340647"
"6","1966486297153","7.99576","1.70406","-3.47723","0","0","0","0.209425","-0.967278","0.143225","-0.312482","-0.204996","-0.92754","0.926551","0.149495","-0.345189"
"6","1966503081821","7.5168","-1.61034","-2.27026","0","0","0","0.203756","-0.966739","0.154592","-0.310944","-0.213631","-0.926108","0.92833","0.140631","-0.34413"
"6","1966519835972","8.09155","-4.98219","-4.05199","0","0","0","0.210022","-0.944798","0.251492","-0.299238","-0.307002","-0.903442","0.930778","0.114487","-0.347196"
"6","1966536651157","9.56674","-3.46869","-4.35852","0","0","0","0.185933","-0.948421","0.25676","-0.312422","-0.304821","-0.899709","0.931569","0.087068","-0.352984"
"6","1966553405308","10.6588","1.09099","-4.28189","0","0","0","0.1918","-0.937593","0.290056","-0.309442","-0.33824","-0.888729","0.931374","0.0807027","-0.355005"
"6","1966570189976","10.3331","4.67358","-4.37767","0","0","0","0.192075","-0.949848","0.24677","-0.314849","-0.297802","-0.901212","0.929504","0.0954051","-0.356259"
"6","1966586974644","9.60506","5.72729","-4.53094","0","0","0","0.19068","-0.966455","0.172065","-0.326022","-0.227679","-0.917536","0.925932","0.118859","-0.3585"
"6","1966603759311","8.22565","3.60072","-3.78377","0","0","0","0.214608","-0.958138","0.189511","-0.320453","-0.252365","-0.913029","0.922634","0.135214","-0.361198"
"6","1966620574497","7.86165","0.861084","-2.84502","0","0","0","0.184086","-0.977973","0.0983931","-0.33961","-0.157224","-0.927332","0.922376","0.137293","-0.361072"
"6","1966637328647","7.15279","-1.05475","-2.07867","0","0","0","0.177488","-0.978385","0.106114","-0.337125","-0.161748","-0.927461","0.924578","0.12884","-0.358547"
"6","1966654143833","6.61636","-1.61034","-2.61511","0","0","0","0.184019","-0.969447","0.162203","-0.328373","-0.216174","-0.919478","0.926449","0.115938","-0.358121"
"6","1966670897983","6.86542","-0.997269","-3.22818","0","0","0","0.181975","-0.965541","0.186055","-0.329006","-0.238096","-0.913819","0.926629","0.105079","-0.360996"
"6","1966687652134","7.05699","-0.748215","-3.13239","0","0","0","0.165985","-0.972307","0.164525","-0.338034","-0.212831","-0.916753","0.926381","0.0965521","-0.363999"
"6","1966704467319","7.13364","-0.499161","-2.73006","0","0","0","0.155812","-0.97531","0.156506","-0.341844","-0.201891","-0.917814","0.92675","0.0895056","-0.364861"
"6","1966721801304","7.45932","-0.57579","-2.53848","0","0","0","0.152953","-0.973495","0.170038","-0.338546","-0.213267","-0.916462","0.928435","0.0826097","-0.362193"
"6","1966738036655","8.28313","-0.0968323","-2.13615","0","0","0","0.146075","-0.974559","0.169988","-0.334894","-0.2104","-0.918465","0.930864","0.0772367","-0.357109"
"6","1966754821323","8.62798","0.0181122","-2.28943","0","0","0","0.135596","-0.978354","0.156325","-0.333069","-0.193613","-0.92281","0.933102","0.0730625","-0.352113"
"6","1966771605991","8.91536","-0.154312","-2.13615","0","0","0","0.147256","-0.967319","0.206419","-0.321034","-0.244139","-0.915059","0.935549","0.0684799","-0.346493"
"6","1966788390659","9.04945","-0.920639","-1.84879","0","0","0","0.137859","-0.968376","0.207947","-0.316067","-0.241987","-0.917357","0.938668","0.0607407","-0.339432"
"6","1966805175327","9.58589","-1.64865","-1.75299","0","0","0","0.140186","-0.955896","0.258091","-0.303871","-0.289621","-0.907624","0.942343","0.0488099","-0.33107"
"6","1966821990513","9.60506","-1.3038","-1.50394","0","0","0","0.124363","-0.959573","0.252495","-0.299079","-0.278887","-0.912565","0.94609","0.0379733","-0.321672"
"6","1966838744663","9.64337","-0.978119","-2.02121","0","0","0","0.118169","-0.956539","0.266588","-0.292884","-0.2901","-0.911077","0.948818","0.0295814","-0.314436"
"6","1966855529331","10.1798","0.0181122","-2.99828","0","0","0","0.125079","-0.944759","0.302963","-0.286429","-0.326744","-0.900665","0.949902","0.0258768","-0.311475"
"6","1966872344517","10.8887","1.32088","-3.4006","0","0","0","0.130344","-0.942196","0.30867","-0.283855","-0.333757","-0.898906","0.949967","0.0295496","-0.310951"
"6","1966889098667","12.2872","2.83438","-2.2511","0","0","0","0.125463","-0.957018","0.261487","-0.281011","-0.287056","-0.915768","0.951468","0.0414139","-0.304947"
"6","1966905883335","14.3563","0.228867","-0.373596","0","0","0","0.146219","-0.927409","0.344286","-0.249432","-0.371345","-0.894364","0.95729","0.0448968","-0.285623"
"6","1966922637485","12.6129","-2.01266","-0.00958252","0","0","0","0.120712","-0.940094","0.31883","-0.239763","-0.33928","-0.909617","0.963298","0.0333579","-0.266355"
"6","1966939452671","11.5209","-2.24255","-1.33151","0","0","0","0.112176","-0.927126","0.357567","-0.229284","-0.374277","-0.898524","0.966874","0.0188081","-0.25456"
"6","1966956237339","14.7395","1.93394","-7.28973","0","0","0","0.104767","-0.946791","0.304322","-0.245313","-0.321153","-0.914703","0.963766","0.0211767","-0.265906"
"6","1966972991489","16.1955","2.33627","-8.19017","0","0","0","0.102902","-0.967322","0.231733","-0.267123","-0.251285","-0.930323","0.958153","0.0338305","-0.284252"
"6","1966989776157","14.2605","-3.98596","-7.09814","0","0","0","0.0920421","-0.968204","0.232613","-0.285086","-0.249449","-0.925474","0.954072","0.0188678","-0.298981"
"6","1967006560825","10.3905","-4.54155","-4.95242","0","0","0","0.100207","-0.941071","0.323024","-0.291026","-0.338182","-0.894951","0.951453","-0.00432807","-0.307765"
"6","1967023376011","7.68922","-0.901474","-5.52718","0","0","0","0.0869906","-0.949049","0.302883","-0.307808","-0.314764","-0.897874","0.947463","-0.0151232","-0.319506"
"6","1967040191196","6.07993","3.81146","-5.3739","0","0","0","0.0876431","-0.963787","0.251858","-0.322967","-0.266666","-0.908065","0.942343","-0.00175619","-0.334643"
"6","1967056945347","6.13741","6.30203","-5.04822","0","0","0","0.115622","-0.965463","0.233479","-0.329929","-0.259038","-0.90777","0.936898","0.0279268","-0.348485"
"6","1967073760532","7.95744","5.8614","-4.93326","0","0","0","0.117477","-0.982487","0.144634","-0.343196","-0.176835","-0.922467","0.931888","0.0587311","-0.35796"
"6","1967090514683","8.87703","3.21756","-3.84125","0","0","0","0.133473","-0.98175","0.13547","-0.344252","-0.174109","-0.922592","0.929341","0.0765049","-0.361208"
"6","1967107299351","10.8503","-1.11221","-1.8871","0","0","0","0.128688","-0.981226","0.143652","-0.337273","-0.179526","-0.92413","0.93257","0.0704743","-0.354044"
"6","1967124145054","12.1531","-1.03558","-3.66882","0","0","0","0.131137","-0.973555","0.187065","-0.326717","-0.220594","-0.919018","0.93598","0.0594004","-0.347005"
"6","1967140868686","9.18356","0.918564","-4.70337","0","0","0","0.126763","-0.976225","0.175831","-0.332503","-0.208824","-0.919692","0.934544","0.0581184","-0.351069"
"6","1967157653354","7.53595","1.55078","-4.39684","0","0","0","0.131015","-0.976938","0.168606","-0.339178","-0.203979","-0.918341","0.931554","0.0631295","-0.35808"
"6","1967174438022","7.05699","1.28256","-3.51555","0","0","0","0.143194","-0.972334","0.184558","-0.340405","-0.22349","-0.913333","0.929312","0.0679588","-0.362989"
"6","1967191253208","7.11447","1.05267","-3.03659","0","0","0","0.143194","-0.972334","0.184558","-0.340405","-0.22349","-0.913333","0.929312","0.0679588","-0.362989"
"6","1967208037876","7.34438","1.24425","-2.67259","0","0","0","0.150957","-0.970684","0.187041","-0.339648","-0.22862","-0.912344","0.928359","0.0741963","-0.364203"
"6","1967224792026","7.42101","1.60826","-2.38521","0","0","0","0.149728","-0.97391","0.170532","-0.339079","-0.212595","-0.916422","0.928766","0.0793908","-0.362064"
"6","1967241576694","7.68922","1.39752","-2.38521","0","0","0","0.154081","-0.973188","0.170774","-0.335171","-0.214071","-0.917515","0.929473","0.0841338","-0.359168"
"6","1967258361362","8.07239","1.34004","-2.34689","0","0","0","0.143344","-0.980714","0.132865","-0.3371","-0.174606","-0.925136","0.930492","0.087824","-0.355627"
"6","1967275115513","8.30229","1.18677","-2.30858","0","0","0","0.15966","-0.971905","0.172941","-0.325967","-0.217267","-0.920076","0.931802","0.0905258","-0.351498"
"6","1967291900181","8.07239","1.74237","-2.15532","0","0","0","0.146862","-0.981101","0.125981","-0.32872","-0.168532","-0.929268","0.932939","0.095062","-0.347259"
"6","1967308715366","7.76585","2.35542","-1.84879","0","0","0","0.169852","-0.970414","0.171603","-0.314321","-0.218386","-0.923856","0.933998","0.10298","-0.342115"
"6","1967325469517","7.80417","2.58533","-1.54225","0","0","0","0.17483","-0.97143","0.160495","-0.308083","-0.208793","-0.928165","0.935157","0.112825","-0.335785"
"6","1967342254185","8.01491","2.33627","-1.46562","0","0","0","0.161331","-0.982374","0.0944129","-0.310465","-0.141329","-0.94002","0.936795","0.122342","-0.327793"
"6","1967359069370","7.91913","1.99142","-1.79131","0","0","0","0.161331","-0.982374","0.0944129","-0.310465","-0.141329","-0.94002","0.936795","0.122342","-0.327793"
"6","1967375823520","8.2065","1.45499","-2.76837","0","0","0","0.168351","-0.980944","0.0969904","-0.302677","-0.145085","-0.941986","0.938107","0.129228","-0.321335"
"6","1967392608188","9.64337","1.11014","-3.1707","0","0","0","0.154365","-0.986806","0.0488487","-0.308871","-0.0951615","-0.946331","0.938494","0.130993","-0.319485"
"6","1967409392856","10.1606","1.16762","-3.4006","0","0","0","0.15377","-0.986734","0.0520637","-0.308248","-0.0979641","-0.946249","0.938796","0.129456","-0.319223"
"6","1967426177524","11.3676","1.39752","-3.18987","0","0","0","0.164059","-0.982507","0.0881172","-0.300383","-0.134843","-0.944239","0.939604","0.128442","-0.31725"
"6","1967442992710","12.747","1.93394","-2.15532","0","0","0","0.153665","-0.986529","0.0561064","-0.297067","-0.100277","-0.949577","0.942411","0.129249","-0.308474"
"6","1967459746860","12.8811","2.01057","-1.10161","0","0","0","0.150149","-0.987751","0.0424725","-0.284894","-0.0843646","-0.954839","0.946726","0.131268","-0.294072"
"6","1967476531528","12.747","2.02974","-0.431061","0","0","0","0.146119","-0.988841","0.0290114","-0.286982","-0.0704355","-0.955343","0.946726","0.131268","-0.294072"
"6","1967493377231","12.6895","1.89563","-0.335281","0","0","0","0.136342","-0.990599","-0.011178","-0.259618","-0.0248391","-0.965392","0.956038","0.134525","-0.260564"
"6","1967510100864","12.0573","2.7386","-0.929184","0","0","0","0.141451","-0.989932","-0.00502687","-0.244718","-0.0300465","-0.969128","0.959221","0.138314","-0.246505"
"6","1967526885532","11.9041","2.87271","-6.92572","0","0","0","0.15688","-0.987418","0.0198668","-0.246449","-0.0586193","-0.967381","0.956374","0.146867","-0.252544"
"6","1967544219517","14.2222","1.62741","-11.2555","0","0","0","0.143353","-0.989338","-0.0256954","-0.287265","-0.0167502","-0.957705","0.947063","0.144671","-0.286603"
"6","1967560485386","13.7816","2.60449","-8.93735","0","0","0","0.154591","-0.987922","0.0105273","-0.305266","-0.057897","-0.950506","0.939635","0.143726","-0.310529"
"6","1967577270054","10.2948","2.12553","-8.05606","0","0","0","0.182436","-0.97984","0.0814267","-0.31274","-0.136345","-0.940002","0.932154","0.146025","-0.33131"
"6","1967594054722","9.56674","0.707825","-5.4697","0","0","0","0.172138","-0.983766","0.0507216","-0.318525","-0.104311","-0.942158","0.932154","0.146025","-0.33131"
"6","1967610839390","7.89996","-0.230942","-2.67259","0","0","0","0.189139","-0.976462","0.103674","-0.321036","-0.161269","-0.933235","0.927988","0.143228","-0.343982"
"6","1967627624058","6.52057","-1.64865","-1.92542","0","0","0","0.171754","-0.979366","0.106499","-0.322995","-0.158112","-0.9331","0.930685","0.125864","-0.343486"
"6","1967644378208","7.36353","-2.87479","-2.73006","0","0","0","0.177463","-0.976404","0.123054","-0.319893","-0.17548","-0.931061","0.930685","0.125864","-0.343486"
"6","1967661162876","9.94991","-1.9935","-4.35852","0","0","0","0.158798","-0.971281","0.177191","-0.320741","-0.220484","-0.921147","0.93376","0.0894439","-0.346542"
"6","1967677947544","10.8695","2.70029","-5.12485","0","0","0","0.157282","-0.974671","0.158996","-0.327118","-0.203329","-0.922849","0.931803","0.093137","-0.350813"
"6","1967694762729","10.4289","4.7119","-5.48886","0","0","0","0.165816","-0.977323","0.131698","-0.334411","-0.181359","-0.924812","0.927725","0.109307","-0.3569"
"6","1967711547397","9.60506","4.36705","-4.70337","0","0","0","0.16503","-0.977746","0.129527","-0.334799","-0.179065","-0.925119","0.927725","0.109307","-0.3569"
"6","1967728332065","8.72377","2.54701","-3.78377","0","0","0","0.175853","-0.981251","0.078886","-0.346285","-0.136674","-0.92812","0.9215","0.135896","-0.363827"
"6","1967745147251","7.1911","0.669495","-3.11322","0","0","0","0.178933","-0.98019","0.0849182","-0.346179","-0.143516","-0.927127","0.920947","0.136497","-0.365"
"6","1967761901401","6.19487","-0.556625","-2.46185","0","0","0","0.168804","-0.982747","0.075589","-0.34947","-0.131382","-0.927691","0.921616","0.130182","-0.365618"
"6","1967778716587","5.62013","-1.32297","-2.27026","0","0","0","0.13849","-0.990043","0.0252117","-0.359721","-0.0740044","-0.93012","0.922725","0.119743","-0.366388"
"6","1967795470737","5.50517","-1.26549","-2.44269","0","0","0","0.143041","-0.987336","0.0686145","-0.355733","-0.115984","-0.927363","0.923577","0.108242","-0.367818"
"6","1967812255405","6.61636","-0.863159","-2.63428","0","0","0","0.138321","-0.986945","0.0825025","-0.355985","-0.127281","-0.925783","0.924198","0.0986858","-0.368943"
"6","1967829070591","8.01491","-0.863159","-2.46185","0","0","0","0.121533","-0.990364","0.0664009","-0.357363","-0.106069","-0.927923","0.926024","0.0890442","-0.366811"
"6","1967845824741","9.0303","-0.863159","-2.28943","0","0","0","0.122967","-0.987584","0.0977574","-0.349369","-0.135278","-0.927168","0.928881","0.0798574","-0.361666"
"6","1967862609409","9.33684","-0.767365","-2.00204","0","0","0","0.109681","-0.989882","0.0900188","-0.344293","-0.122794","-0.930797","0.932434","0.0710976","-0.354278"
"6","1967879394077","9.01114","-0.479996","-1.92542","0","0","0","0.118981","-0.983178","0.138581","-0.332109","-0.170941","-0.927622","0.935707","0.0643456","-0.346861"
"6","1967896697544","8.83871","-0.288422","-1.71468","0","0","0","0.126927","-0.97498","0.182492","-0.320224","-0.214406","-0.92276","0.9388","0.0586852","-0.339426"
"6","1967912963413","8.78125","-0.65242","-1.40814","0","0","0","0.111932","-0.98033","0.162559","-0.315688","-0.190192","-0.929606","0.942238","0.0527343","-0.330767"
"6","1967929717563","9.04945","-1.26549","-1.21655","0","0","0","0.113526","-0.972447","0.203615","-0.303341","-0.22908","-0.924936","0.946095","0.0432393","-0.32099"
"6","1967946502231","9.20273","-1.09306","-1.52309","0","0","0","0.0934732","-0.979677","0.177471","-0.29958","-0.197666","-0.93337","0.949481","0.0340782","-0.311968"
"6","1967963286899","10.1032","-0.326736","-2.86417","0","0","0","0.102745","-0.968938","0.224951","-0.292581","-0.245582","-0.924168","0.950705","0.0291372","-0.308725"
"6","1967980071567","10.9078","0.592865","-3.55386","0","0","0","0.0902582","-0.978362","0.186175","-0.296138","-0.204848","-0.93292","0.950871","0.0290701","-0.30822"
"6","1967996886753","11.7508","1.79984","-3.70714","0","0","0","0.0898284","-0.982332","0.164177","-0.297343","-0.183777","-0.936917","0.950536","0.0353447","-0.308598"
"6","1968013671421","14.1456","1.66573","-0.56517","0","0","0","0.101833","-0.977801","0.183124","-0.28038","-0.204829","-0.93778","0.954472","0.0441524","-0.295015"
"6","1968030425571","12.9577","-1.53371","0.00956726","0","0","0","0.115662","-0.956241","0.268749","-0.252906","-0.289999","-0.923006","0.960552","0.0387886","-0.275381"
"6","1968047240757","12.3638","-1.61034","0.354416","0","0","0","0.115662","-0.956241","0.268749","-0.252906","-0.289999","-0.923006","0.960552","0.0387886","-0.275381"
"6","1968063994907","11.4442","-0.978119","0.814224","0","0","0","0.0767034","-0.96936","0.233361","-0.22549","-0.244852","-0.942975","0.971221","0.0197089","-0.237362"
"6","1968080810093","10.2948","0.228867","-0.239487","0","0","0","0.072053","-0.968806","0.237116","-0.21171","-0.247172","-0.945561","0.974673","0.0179307","-0.222915"
"6","1968097564243","12.2106","1.24425","-6.48509","0","0","0","0.0754526","-0.969932","0.231386","-0.218508","-0.242491","-0.945226","0.972914","0.0207602","-0.230234"
"6","1968114898227","14.8161","-0.422516","-9.93358","0","0","0","0.0758471","-0.975299","0.207458","-0.248288","-0.219977","-0.943378","0.965712","0.020043","-0.25884"
"6","1968131682895","12.2297","-1.03558","-8.28596","0","0","0","0.0820257","-0.969131","0.232501","-0.270809","-0.246183","-0.930622","0.959132","0.0133717","-0.282642"
"6","1968147918247","9.45178","0.248016","-6.71498","0","0","0","0.0916649","-0.96332","0.252214","-0.288839","-0.268113","-0.919069","0.952979","0.011397","-0.302821"
"6","1968164733433","8.39807","1.28256","-5.12485","0","0","0","0.0884694","-0.972115","0.217177","-0.303664","-0.233975","-0.923604","0.948663","0.0157618","-0.315896"
"6","1968181487583","9.45178","2.35542","-4.51178","0","0","0","0.0862801","-0.980847","0.17463","-0.312693","-0.193087","-0.930022","0.945927","0.0256368","-0.323364"
"6","1968198272251","9.37515","3.40913","-5.06737","0","0","0","0.0899883","-0.986469","0.137043","-0.320478","-0.158964","-0.933823","0.942972","0.040114","-0.330446"
"6","1968215087436","9.66252","4.15631","-5.33559","0","0","0","0.0999428","-0.989263","0.106636","-0.329499","-0.134031","-0.934594","0.938851","0.0582696","-0.339356"
"6","1968232360386","10.084","3.17923","-3.8604","0","0","0","0.0980636","-0.993631","0.0555056","-0.336457","-0.0855925","-0.937801","0.936579","0.0732889","-0.342708"
"6","1968249175571","9.58589","-0.59494","-2.69174","0","0","0","0.0897874","-0.995053","0.0425092","-0.33426","-0.0703126","-0.939854","0.938194","0.0701779","-0.33892"
"6","1968265929722","9.54758","-1.74445","-3.63051","0","0","0","0.0981272","-0.990049","0.100871","-0.329404","-0.127959","-0.935478","0.939076","0.0585687","-0.338682"
"6","1968282714390","8.64714","-0.805695","-4.10945","0","0","0","0.113456","-0.979059","0.16903","-0.326831","-0.197438","-0.924229","0.938248","0.0496151","-0.342388"
"6","1968299529575","7.95744","-0.0585175","-4.30104","0","0","0","0.113713","-0.979234","0.167843","-0.333562","-0.196762","-0.921966","0.935845","0.048854","-0.349009"
"6","1968315764927","5.98413","1.89563","-3.30481","0","0","0","0.110663","-0.984403","0.136761","-0.341563","-0.166895","-0.924922","0.933321","0.0556423","-0.354705"
"6","1968332549595","6.02245","2.29796","-2.34689","0","0","0","0.129215","-0.979092","0.157108","-0.338522","-0.192473","-0.921063","0.932044","0.0658312","-0.356314"
"6","1968349334263","6.38646","2.24048","-1.8871","0","0","0","0.129264","-0.983205","0.128837","-0.338124","-0.165844","-0.926374","0.932182","0.0761837","-0.353883"
"6","1968366118931","7.01868","1.93394","-1.94456","0","0","0","0.135376","-0.983123","0.123059","-0.334117","-0.162226","-0.928466","0.932759","0.0845755","-0.350439"
"6","1968382934116","7.93828","1.95311","-2.50017","0","0","0","0.147275","-0.979531","0.137222","-0.32761","-0.179212","-0.927661","0.933264","0.091666","-0.347297"
"6","1968399688267","8.49387","2.01057","-2.86417","0","0","0","0.14645","-0.982422","0.115755","-0.328318","-0.158656","-0.931147","0.933145","0.0983622","-0.345782"
"6","1968416503452","8.70461","1.95311","-2.481","0","0","0","0.152985","-0.981114","0.118366","-0.323904","-0.162942","-0.931953","0.933639","0.104236","-0.342715"
"6","1968433257602","8.35976","1.91479","-2.481","0","0","0","0.164275","-0.976889","0.136757","-0.31658","-0.18352","-0.930644","0.934233","0.109587","-0.339411"
"6","1968450591587","8.30229","2.183","-2.04036","0","0","0","0.157079","-0.982763","0.0974844","-0.318144","-0.143803","-0.937073","0.934939","0.116181","-0.335248"
"6","1968467406772","8.34061","2.81523","-1.38898","0","0","0","0.163344","-0.982298","0.0916991","-0.310192","-0.139369","-0.940403","0.936536","0.125165","-0.327466"
"6","1968483642124","8.35976","2.68112","-0.910019","0","0","0","0.166235","-0.983383","0.07297","-0.302041","-0.121221","-0.945556","0.938689","0.135144","-0.317174"
"6","1968500426792","8.41724","1.85732","-0.929184","0","0","0","0.180503","-0.977936","0.10517","-0.284767","-0.154307","-0.946096","0.941449","0.140824","-0.306336"
"6","1968517180942","8.81956","1.11014","-2.23195","0","0","0","0.16487","-0.984781","0.0550014","-0.288597","-0.10149","-0.952056","0.943149","0.141092","-0.300938"
"6","1968533965610","10.0265","0.937714","-3.18987","0","0","0","0.167367","-0.983135","0.0737154","-0.285862","-0.119951","-0.950734","0.943542","0.138049","-0.301117"
"6","1968550780796","11.0228","0.937714","-3.80293","0","0","0","0.167966","-0.981844","0.0881463","-0.285256","-0.134","-0.949038","0.943619","0.134262","-0.302585"
"6","1968567534946","13.111","1.28256","-3.30481","0","0","0","0.15132","-0.987421","0.0458516","-0.290816","-0.0888038","-0.952649","0.944737","0.13082","-0.300595"
"6","1968584380649","14.0689","1.83815","-1.00581","0","0","0","0.166675","-0.980237","0.106562","-0.267457","-0.148968","-0.951985","0.949045","0.130171","-0.287001"
"6","1968601165317","13.8199","1.64658","0.737595","0","0","0","0.164039","-0.980219","0.110731","-0.244393","-0.149136","-0.958139","0.9557","0.130111","-0.264023"
"6","1968617949985","12.747","0.516235","0.795059","0","0","0","0.176417","-0.964236","0.197802","-0.208055","-0.232942","-0.949974","0.962076","0.126438","-0.241709"
"6","1968634704136","11.7891","-0.0585175","-1.81047","0","0","0","0.165077","-0.966858","0.194768","-0.200339","-0.226231","-0.953249","0.965719","0.11834","-0.231045"
"6","1968651519321","12.1914","2.22133","-8.89903","0","0","0","0.156616","-0.977588","0.140691","-0.226427","-0.174194","-0.958325","0.961354","0.118233","-0.248634"
"6","1968668303989","15.3525","2.54701","-11.9069","0","0","0","0.169427","-0.973636","0.152733","-0.262618","-0.193972","-0.945202","0.949909","0.120032","-0.288558"
"6","1968685058140","10.4097","2.79607","-8.32428","0","0","0","0.18511","-0.968386","0.167219","-0.283097","-0.215495","-0.934569","0.941058","0.125659","-0.314037"
"6","1968701842808","8.39807","2.02974","-6.17856","0","0","0","0.187388","-0.971439","0.145577","-0.302984","-0.198137","-0.932171","0.934391","0.13057","-0.331459"
"6","1968718657993","8.4364","0.420441","-3.32397","0","0","0","0.198992","-0.962704","0.183314","-0.300279","-0.237954","-0.923694","0.932864","0.128763","-0.33643"
"6","1968735381626","7.93828","-1.15054","-2.61511","0","0","0","0.19156","-0.963018","0.189474","-0.300616","-0.24134","-0.922705","0.93431","0.119795","-0.33573"
"6","1968752196811","8.49387","-2.14677","-3.74545","0","0","0","0.187399","-0.956835","0.222145","-0.300639","-0.271168","-0.914376","0.935146","0.104567","-0.338479"
"6","1968768981479","9.77748","-1.13138","-4.26273","0","0","0","0.177646","-0.956601","0.23099","-0.306665","-0.276847","-0.910666","0.935093","0.0909399","-0.342537"
"6","1968785735630","10.3331","1.87648","-3.78377","0","0","0","0.182095","-0.952513","0.244051","-0.30483","-0.290658","-0.906971","0.934837","0.0907607","-0.343282"
"6","1968802520298","9.47095","4.15631","-4.32021","0","0","0","0.178631","-0.965154","0.191229","-0.312808","-0.239979","-0.919","0.932868","0.104344","-0.344776"
"6","1968819304966","8.07239","4.36705","-4.97159","0","0","0","0.183767","-0.972246","0.144802","-0.325667","-0.19921","-0.92426","0.927454","0.122691","-0.353236"
"6","1968836089634","7.49763","2.39375","-4.0903","0","0","0","0.197749","-0.968655","0.150345","-0.328226","-0.209951","-0.920972","0.923668","0.132774","-0.359455"
"6","1968852874302","6.94205","0.68866","-3.38144","0","0","0","0.188926","-0.974302","0.122646","-0.337836","-0.181759","-0.923488","0.922049","0.133037","-0.363494"
"6","1968869658970","6.13741","-0.384201","-3.09407","0","0","0","0.157775","-0.985965","0.0545847","-0.354867","-0.108197","-0.928635","0.921508","0.127145","-0.366957"
"6","1968886474155","5.94582","-0.805695","-2.59595","0","0","0","0.175989","-0.9763","0.125963","-0.34569","-0.181104","-0.920706","0.921697","0.11849","-0.36937"
"6","1968903747104","6.02245","-1.09306","-2.38521","0","0","0","0.147098","-0.986134","0.0768283","-0.356491","-0.125309","-0.925857","0.922646","0.108804","-0.369981"
"6","1968920531772","6.84625","-1.16969","-2.40437","0","0","0","0.134908","-0.987936","0.0760408","-0.357305","-0.120084","-0.926236","0.924193","0.0977868","-0.369195"
"6","1968936797642","8.24481","-1.09306","-2.40437","0","0","0","0.141452","-0.981799","0.126736","-0.34812","-0.169179","-0.922058","0.926717","0.0863073","-0.365715"
"6","1968953582310","9.52841","-0.958954","-2.40437","0","0","0","0.118126","-0.988262","0.0968728","-0.348925","-0.132645","-0.927716","0.929676","0.0757862","-0.360498"
"6","1968970397495","9.77748","-0.59494","-2.15532","0","0","0","0.110493","-0.988328","0.104879","-0.342142","-0.1369","-0.929622","0.933129","0.0668334","-0.353275"
"6","1968987151645","9.33684","-0.384201","-1.77214","0","0","0","0.103613","-0.988735","0.108015","-0.334517","-0.136915","-0.932391","0.936677","0.0604746","-0.344935"
"6","1969003936313","8.47472","-0.805695","-1.44646","0","0","0","0.0999767","-0.98753","0.121612","-0.325713","-0.147972","-0.933818","0.940168","0.0537494","-0.336445"
"6","1969020751499","7.82333","-1.03558","-1.13992","0","0","0","0.102107","-0.982208","0.15761","-0.314921","-0.182205","-0.931464","0.943609","0.0454746","-0.327923"
"6","1969037536167","8.07239","-0.863159","-1.38898","0","0","0","0.0919542","-0.983432","0.156227","-0.309231","-0.177337","-0.934306","0.946531","0.0376032","-0.320414"
"6","1969054351352","8.83871","-0.0202026","-1.71468","0","0","0","0.120882","-0.957446","0.262078","-0.291293","-0.286604","-0.912692","0.948966","0.0339871","-0.313542"
"6","1969071136020","9.91159","0.861084","-2.15532","0","0","0","0.104645","-0.971981","0.210483","-0.291228","-0.232317","-0.928017","0.950913","0.0358133","-0.307379"
"6","1969087890171","10.6013","1.01434","-2.95996","0","0","0","0.109819","-0.969907","0.217302","-0.28604","-0.240215","-0.92762","0.951904","0.0397128","-0.303812"
"6","1969104674839","11.8466","0.995193","-3.53471","0","0","0","0.12184","-0.960762","0.249182","-0.281193","-0.274179","-0.91965","0.951885","0.0419822","-0.303566"
"6","1969121459507","12.862","1.68489","-1.1974","0","0","0","0.110896","-0.973058","0.202141","-0.275904","-0.225544","-0.934349","0.954767","0.0478436","-0.293482"
"6","1969138274692","13.6091","0.420441","-0.0478973","0","0","0","0.11838","-0.96221","0.245229","-0.250026","-0.267893","-0.930441","0.960975","0.0488326","-0.27229"
"6","1969155028843","12.5746","-0.63327","0.52684","0","0","0","0.098878","-0.972143","0.21251","-0.235859","-0.230366","-0.944088","0.966744","0.0432272","-0.252067"
"6","1969171813511","11.5017","-0.499161","0.335266","0","0","0","0.10146","-0.958003","0.268209","-0.213778","-0.284297","-0.934598","0.971599","0.037487","-0.233645"
"6","1969188598179","11.2143","-0.805695","-2.34689","0","0","0","0.089368","-0.964697","0.247734","-0.211285","-0.261431","-0.941813","0.97333","0.0318254","-0.22719"
"6","1969205382847","13.8199","1.09099","-7.44301","0","0","0","0.0842361","-0.973948","0.210546","-0.230037","-0.224597","-0.94691","0.969529","0.0313306","-0.242964"
"6","1969222198032","15.4483","0.401291","-11.3705","0","0","0","0.105274","-0.963494","0.246166","-0.257127","-0.265496","-0.929192","0.960626","0.0345238","-0.27569"
"6","1969238982700","9.89243","-2.60657","-5.85286","0","0","0","0.0896463","-0.971886","0.21772","-0.283121","-0.234449","-0.929987","0.954885","0.0217286","-0.296179"
"6","1969256255649","7.67006","-1.87856","-5.62297","0","0","0","0.082638","-0.970588","0.226121","-0.299037","-0.240591","-0.923414","0.950657","0.00869066","-0.310123"
"6","1969272491001","8.51303","1.68489","-5.73792","0","0","0","0.0895991","-0.970232","0.224995","-0.312671","-0.241884","-0.918547","0.945626","0.0119517","-0.325036"
"6","1969289275669","9.06862","4.0222","-4.78","0","0","0","0.0780335","-0.987751","0.135125","-0.325756","-0.153361","-0.932933","0.942228","0.0287822","-0.333733"
"6","1969306090854","9.4901","5.28665","-5.20148","0","0","0","0.08456","-0.993312","0.0786258","-0.334961","-0.102654","-0.936623","0.93843","0.0528642","-0.341401"
"6","1969322875522","9.83495","4.07968","-4.24356","0","0","0","0.113704","-0.988772","0.0969606","-0.335147","-0.130046","-0.933148","0.93528","0.0736064","-0.34617"
"6","1969339629673","9.77748","0.382126","-2.99828","0","0","0","0.116026","-0.988894","0.0928839","-0.333628","-0.126884","-0.934127","0.935537","0.0773944","-0.344645"
"6","1969356444858","11.2143","-2.97058","-2.99828","0","0","0","0.0917499","-0.993162","0.072182","-0.333165","-0.0989268","-0.937664","0.938394","0.0619821","-0.339964"
"6","1969373199009","11.3101","-2.66405","-4.12862","0","0","0","0.0960014","-0.985296","0.141334","-0.327965","-0.165371","-0.930103","0.939799","0.0429387","-0.339018"
"6","1969390014194","7.57426","0.286331","-3.74545","0","0","0","0.0999865","-0.98194","0.160616","-0.330525","-0.185037","-0.925481","0.938486","0.0394481","-0.343057"
"6","1969406768345","6.02245","1.20593","-3.13239","0","0","0","0.111527","-0.977425","0.179448","-0.331924","-0.206843","-0.920349","0.93669","0.0430809","-0.3475"
"6","1969423583530","5.5818","1.72321","-2.90248","0","0","0","0.136836","-0.964441","0.22612","-0.327691","-0.259486","-0.908452","0.934823","0.0502113","-0.351546"
"6","1969440368198","5.60097","2.24048","-3.03659","0","0","0","0.143963","-0.966072","0.214426","-0.3306","-0.251186","-0.90973","0.932726","0.0600789","-0.355545"
"6","1969457122349","5.9075","2.48953","-2.90248","0","0","0","0.134342","-0.978928","0.153796","-0.34041","-0.191348","-0.920601","0.930631","0.0713215","-0.358943"
"6","1969473968052","6.75047","2.70029","-2.17447","0","0","0","0.143299","-0.979283","0.143075","-0.338882","-0.18438","-0.922585","0.929852","0.0837198","-0.358282"
"6","1969490813755","7.80417","2.56618","-1.6572","0","0","0","0.150889","-0.979527","0.133264","-0.332357","-0.177226","-0.926353","0.931006","0.0954849","-0.352294"
"6","1969507506870","8.51303","2.12553","-1.79131","0","0","0","0.159752","-0.977405","0.138414","-0.322054","-0.184146","-0.92864","0.933146","0.103775","-0.344195"
"6","1969524291538","8.41724","1.87648","-2.19363","0","0","0","0.163164","-0.977484","0.133798","-0.316356","-0.18029","-0.931351","0.934503","0.109635","-0.33865"
"6","1969541106724","8.45555","2.08722","-1.86794","0","0","0","0.160849","-0.978775","0.126992","-0.317539","-0.173146","-0.932303","0.934503","0.109635","-0.33865"
"6","1969557891392","8.74294","2.52785","-1.27403","0","0","0","0.163823","-0.981374","0.100332","-0.305919","-0.147232","-0.940604","0.937857","0.123399","-0.324341"
"6","1969574645542","8.58966","2.27879","-1.2932","0","0","0","0.170418","-0.980189","0.100932","-0.295577","-0.148564","-0.943696","0.939996","0.13099","-0.31504"
"6","1969591430210","8.4364","1.79984","-2.00204","0","0","0","0.180777","-0.975937","0.121926","-0.285383","-0.170686","-0.943092","0.94121","0.135694","-0.309372"
"6","1969608214878","8.62798","1.39752","-3.05576","0","0","0","0.168828","-0.982649","0.0767981","-0.293333","-0.124477","-0.947872","0.940985","0.1375","-0.309259"
"6","1969624999546","9.10693","1.56995","-3.1707","0","0","0","0.180559","-0.977345","0.110434","-0.287916","-0.159881","-0.944215","0.94048","0.138691","-0.310261"
"6","1969641814731","9.52841","1.45499","-3.7646","0","0","0","0.183929","-0.975755","0.118625","-0.288757","-0.168997","-0.942369","0.939569","0.139075","-0.31284"
"6","1969658568882","11.176","1.72321","-3.09407","0","0","0","0.169939","-0.982774","0.0726276","-0.296691","-0.121305","-0.947238","0.939731","0.139425","-0.312195"
"6","1969675384067","14.3755","2.06805","-0.143692","0","0","0","0.160875","-0.985805","0.0480381","-0.281198","-0.0924352","-0.955188","0.946069","0.140158","-0.292077"
"6","1969692138218","14.318","1.56995","0.220322","0","0","0","0.16205","-0.984564","0.0661325","-0.255261","-0.106562","-0.960982","0.953195","0.138846","-0.268589"
"6","1969708922886","13.59","0.55455","-0.69928","0","0","0","0.148344","-0.988056","0.0416992","-0.242291","-0.0771928","-0.967128","0.958796","0.133364","-0.250848"
"6","1969725738071","12.9386","1.34004","-4.30104","0","0","0","0.157237","-0.983119","0.0935574","-0.233713","-0.129089","-0.963698","0.959507","0.129664","-0.250065"
"6","1969742492222","13.2068","1.07182","-9.8761","0","0","0","0.167306","-0.976931","0.132717","-0.251093","-0.172398","-0.952487","0.953395","0.126033","-0.274144"
"6","1969759307407","15.2951","2.91103","-9.55042","0","0","0","0.169303","-0.978168","0.120512","-0.279621","-0.164926","-0.945839","0.945065","0.126435","-0.301439"
"6","1969776061558","11.9041","4.118","-7.80701","0","0","0","0.181109","-0.976392","0.117724","-0.295516","-0.168201","-0.940414","0.938014","0.135528","-0.319002"
"6","1969792815708","9.70084","3.3325","-6.33182","0","0","0","0.1904","-0.975832","0.107237","-0.30983","-0.163383","-0.936649","0.931533","0.145113","-0.33345"
"6","1969809661411","8.49387","1.5891","-4.03282","0","0","0","0.182552","-0.980715","0.0698068","-0.323225","-0.126916","-0.937773","0.928547","0.148629","-0.340161"
"6","1969826446079","7.13364","-1.74445","-2.50017","0","0","0","0.183194","-0.977389","0.105592","-0.317704","-0.160508","-0.934506","0.930325","0.137649","-0.339925"
"6","1969843200229","7.57426","-3.64111","-3.05576","0","0","0","0.171282","-0.975701","0.136638","-0.317661","-0.185972","-0.929788","0.932606","0.115851","-0.341796"
"6","1969859984897","8.91536","-3.02805","-4.35852","0","0","0","0.181478","-0.955391","0.233012","-0.309566","-0.280402","-0.908594","0.933399","0.0927574","-0.346643"
"6","1969876769565","9.75832","0.286331","-4.89494","0","0","0","0.174092","-0.9567","0.233275","-0.317768","-0.278799","-0.906253","0.932049","0.0836437","-0.352545"
"6","1969893554233","9.60506","3.61987","-5.25896","0","0","0","0.173592","-0.964486","0.199077","-0.327676","-0.247195","-0.911879","0.928706","0.0930622","-0.35895"
"6","1969910857700","9.77748","4.98012","-5.14401","0","0","0","0.174711","-0.97416","0.143137","-0.339318","-0.196036","-0.920018","0.924305","0.112168","-0.364799"
"6","1969927123569","9.43263","4.06052","-4.66505","0","0","0","0.172919","-0.980831","0.0898363","-0.350091","-0.146461","-0.925195","0.920617","0.128532","-0.368706"
"6","1969943877720","8.4364","2.16385","-3.78377","0","0","0","0.169989","-0.983558","0.0609647","-0.356433","-0.119043","-0.926706","0.918727","0.1358","-0.370809"
"6","1969960692905","7.15279","0.133072","-3.01744","0","0","0","0.151636","-0.988282","0.017451","-0.364538","-0.0723256","-0.928376","0.918759","0.134414","-0.371233"
"6","1969977477573","6.78879","-0.518311","-2.82585","0","0","0","0.13505","-0.990826","-0.00509945","-0.369348","-0.0455652","-0.928173","0.919426","0.127233","-0.372113"
"6","1969994231724","6.75047","-0.518311","-2.78754","0","0","0","0.131327","-0.991318","0.0064716","-0.369029","-0.0549448","-0.927792","0.920093","0.119456","-0.373041"
"6","1970011016392","6.78879","-0.844009","-3.13239","0","0","0","0.133349","-0.99042","0.0358633","-0.367425","-0.0830126","-0.926341","0.920444","0.11035","-0.374974"
"6","1970028350376","7.07616","-1.15054","-3.13239","0","0","0","0.128255","-0.990529","0.049025","-0.368369","-0.093477","-0.924968","0.92079","0.100572","-0.376869"
"6","1970045135044","7.36353","-0.978119","-2.92165","0","0","0","0.123438","-0.990232","0.0648415","-0.368113","-0.106371","-0.923676","0.921551","0.0901478","-0.377647"
"6","1970061431431","8.14902","-0.57579","-2.481","0","0","0","0.111883","-0.991968","0.0590097","-0.367071","-0.0964382","-0.92518","0.92344","0.0818512","-0.374912"
"6","1970078185581","8.89619","-0.135147","-2.05952","0","0","0","0.105646","-0.992573","0.0603124","-0.361014","-0.0947974","-0.92773","0.926557","0.0762377","-0.368348"
"6","1970095000767","9.10693","0.0181122","-2.05952","0","0","0","0.115305","-0.988327","0.0995681","-0.349441","-0.134188","-0.927299","0.929836","0.0721286","-0.360835"
"6","1970111754917","8.78125","-0.269257","-1.82962","0","0","0","0.1093","-0.989099","0.098673","-0.34303","-0.130702","-0.930187","0.932944","0.0678213","-0.353576"
"6","1970128570102","8.89619","-0.863159","-1.48477","0","0","0","0.0959155","-0.991499","0.0879228","-0.336836","-0.11545","-0.934459","0.936665","0.0600135","-0.345046"
"6","1970145354770","9.08778","-0.978119","-1.21655","0","0","0","0.108051","-0.982217","0.153542","-0.321066","-0.180647","-0.929668","0.940873","0.0511549","-0.334876"
"6","1970162108921","9.1261","-0.614105","-1.33151","0","0","0","0.09735","-0.983957","0.149503","-0.313041","-0.172865","-0.933876","0.944737","0.0441123","-0.324847"
"6","1970178924106","9.43263","-0.115982","-1.92542","0","0","0","0.0757439","-0.992038","0.10061","-0.310722","-0.119359","-0.942977","0.947478","0.0401628","-0.317289"
"6","1970195708774","10.084","0.55455","-2.8067","0","0","0","0.0994218","-0.979139","0.177207","-0.299728","-0.199287","-0.932978","0.94883","0.0396444","-0.313289"
"6","1970212493442","10.6779","1.66573","-3.32397","0","0","0","0.103432","-0.979317","0.173894","-0.29787","-0.197306","-0.933993","0.948986","0.0448075","-0.312117"
"6","1970229278110","11.8083","2.71944","-2.55763","0","0","0","0.0994767","-0.986652","0.128929","-0.295755","-0.153034","-0.942926","0.95007","0.0556678","-0.30703"
"6","1970246001743","13.111","0.324646","-0.775909","0","0","0","0.114699","-0.97849","0.171466","-0.27593","-0.197194","-0.940732","0.95431","0.060588","-0.292612"
"6","1970262786411","12.383","-0.403366","0.239471","0","0","0","0.0937013","-0.986947","0.130983","-0.262828","-0.151416","-0.952888","0.960282","0.0548609","-0.273585"
"6","1970279571079","12.3255","-0.0776672","0.814224","0","0","0","0.0941048","-0.981844","0.164703","-0.239508","-0.182905","-0.95351","0.966323","0.0502822","-0.252372"
"6","1970296355747","11.0994","0.439606","0.124527","0","0","0","0.0830973","-0.986873","0.138477","-0.224754","-0.153937","-0.962179","0.970866","0.0488314","-0.234595"
"6","1970313170933","10.8312","-0.173462","-3.70714","0","0","0","0.073084","-0.991498","0.107657","-0.226312","-0.121617","-0.966433","0.971309","0.0462667","-0.233276"
"6","1970329925083","13.1493","0.784454","-9.47379","0","0","0","0.0830853","-0.987144","0.136542","-0.249692","-0.153267","-0.956119","0.964754","0.0453459","-0.259216"
"6","1970346709751","15.1035","-0.978119","-8.55418","0","0","0","0.0910098","-0.981673","0.167437","-0.273922","-0.186326","-0.94353","0.957436","0.0400058","-0.28586"
"6","1970363494419","10.8695","-1.93602","-6.86826","0","0","0","0.0747861","-0.986501","0.145679","-0.292879","-0.161374","-0.942433","0.95322","0.0278147","-0.300994"
