"id","time","accX","accY","accZ","gyroX","gyroY","gyroZ","rot1","rot2","rot3","rot4","rot5","rot6","rot7","rot8","rot9"
"404","4525620616013","10.0457","0.190536","-0.603485","0","0","0","0","0","0","0","0","0","0","0","0"
"404","4525637553269","10.0457","0.190536","-0.603485","0","0","0","0","0","0","0","0","0","0","0","0"
"404","4525662638718","10.0457","0.190536","-0.603485","0","0","0","0","0","0","0","0","0","0","0","0"
"404","4525673319870","10.0457","0.190536","-0.603485","0","0","0","0","0","0","0","0","0","0","0","0"
"404","4525687785202","10.0457","0.209702","-0.584335","0","0","0","0","0","0","0","0","0","0","0","0"
"404","4525704630905","9.98822","0.267181","-0.641815","0","0","0","0","0","0","0","0","0","0","0","0"
"404","4525721415573","9.96906","0.362961","-0.62265","0","0","0","0","0","0","0","0","0","0","0","0"
"404","4525738200241","9.94991","0.401291","-0.62265","0","0","0","0","0","0","0","0","0","0","0","0"
"404","4525754954392","10.0265","0.286331","-0.546021","0","0","0","0","0","0","0","0","0","0","0","0"
"404","4525771708542","10.0457","0.228867","-0.546021","0","0","0","0","0","0","0","0","0","0","0","0"
"404","4525788554245","10.0074","0.267181","-0.546021","0","0","0","0","0","0","0","0","0","0","0","0"
"404","4525805399948","10.0265","0.382126","-0.584335","0","0","0","0","0","0","0","0","0","0","0","0"
"404","4525822184616","9.98822","0.401291","-0.584335","0","0","0","0","0","0","0","0","0","0","0","0"
"404","4525838908249","9.96906","0.343811","-0.526855","0","0","0","0","0","0","0","0","0","0","0","0"
"404","4525855631882","9.93074","0.228867","-0.526855","0","0","0","0","0","0","0","0","0","0","0","0"
"404","4525872508103","10.0074","0.209702","-0.56517","0","0","0","0","0","0","0","0","0","0","0","0"
"404","4525889292771","10.0457","0.267181","-0.62265","0","0","0","0","0","0","0","0","0","0","0","0"
"404","4525906077438","10.0265","0.324646","-0.507706","0","0","0","0.0374734","-0.984225","0.172908","-0.0526353","-0.174734","-0.983208","0.99791","0.027743","-0.0583528"
"404","4525922831589","9.98822","0.420441","-0.354431","0","0","0","0.0380088","-0.983208","0.178487","-0.0518275","-0.180315","-0.982243","0.997932","0.0280833","-0.0578107"
"404","4525939585739","10.0074","0.362961","-0.335281","0","0","0","0.0399828","-0.975507","0.216304","-0.0503203","-0.218168","-0.974613","0.997932","0.0280833","-0.0578107"
"404","4525956431442","10.0457","0.267181","-0.450226","0","0","0","0.0426983","-0.963594","0.263937","-0.0457781","-0.265787","-0.962944","0.998039","0.0290336","-0.0554602"
"404","4525973185593","10.1415","0.190536","-0.546021","0","0","0","0.043233","-0.958318","0.282415","-0.0446017","-0.284249","-0.957713","0.998069","0.0288086","-0.0550316"
"404","4525989970261","10.0648","0.248016","-0.488541","0","0","0","0.0402165","-0.972423","0.229731","-0.0468929","-0.2315","-0.971704","0.99809","0.0283058","-0.0549099"
"404","4526006693894","9.87326","0.382126","-0.335281","0","0","0","0.0417412","-0.963088","0.265932","-0.044924","-0.267704","-0.962453","0.998118","0.0282273","-0.05444"
"404","4526023539597","9.8158","0.516235","-0.258636","0","0","0","0.0438824","-0.948887","0.312552","-0.0428349","-0.314353","-0.948339","0.998164","0.0290003","-0.0531722"
"404","4526040324265","10.0457","0.362961","-0.201172","0","0","0","0.0399303","-0.975197","0.217709","-0.0455398","-0.219432","-0.974564","0.998164","0.0290003","-0.0531722"
"404","4526057139450","10.1223","0.228867","-0.431061","0","0","0","0.0406162","-0.975495","0.216242","-0.0438251","-0.217952","-0.974975","0.998213","0.030123","-0.0516035"
"404","4526073863083","10.1032","0.152222","-0.507706","0","0","0","0.0442016","-0.951712","0.303793","-0.0386707","-0.305492","-0.951409","0.998274","0.0303059","-0.0503066"
"404","4526090617233","9.98822","0.248016","-0.431061","0","0","0","0.0436654","-0.951401","0.304842","-0.0386204","-0.306513","-0.951083","0.998299","0.0297563","-0.0501275"
"404","4526107554489","9.93074","0.324646","-0.335281","0","0","0","0.0425015","-0.955107","0.293197","-0.0391167","-0.294828","-0.954749","0.99833","0.0291094","-0.0498913"
"404","4526124308640","9.91159","0.439606","-0.354431","0","0","0","0.0412492","-0.96464","0.260322","-0.0396829","-0.26192","-0.964273","0.998361","0.0294452","-0.0490837"
"404","4526141032272","9.96906","0.420441","-0.373596","0","0","0","0.0431617","-0.954772","0.29419","-0.0372622","-0.295798","-0.954524","0.998373","0.0302368","-0.048344"
"404","4526157816940","10.0265","0.343811","-0.411911","0","0","0","0.0430716","-0.957907","0.28383","-0.0369444","-0.285427","-0.957688","0.998389","0.0307632","-0.0476831"
"404","4526174571091","10.1223","0.152222","-0.507706","0","0","0","0.0419055","-0.965052","0.258685","-0.0380231","-0.260265","-0.964788","0.998398","0.0305939","-0.0476009"
"404","4526191416794","10.0648","0.171387","-0.392746","0","0","0","0.040754","-0.967279","0.250422","-0.038804","-0.251973","-0.966956","0.998415","0.0296899","-0.0478032"
"404","4526208170944","10.0074","0.248016","-0.450226","0","0","0","0.0449596","-0.93174","0.360333","-0.0338419","-0.361911","-0.931598","0.998415","0.0296899","-0.0478032"
"404","4526224986130","9.89243","0.362961","-0.335281","0","0","0","0.0435356","-0.938707","0.341955","-0.0347714","-0.343496","-0.93851","0.998447","0.0289683","-0.0475945"
"404","4526241679245","9.83495","0.382126","-0.316116","0","0","0","0.0393988","-0.970234","0.238942","-0.039204","-0.240444","-0.969871","0.998454","0.0288442","-0.0475103"
"404","4526258524948","9.87326","0.286331","-0.546021","0","0","0","0.0415699","-0.956912","0.287389","-0.0364259","-0.288898","-0.956667","0.998471","0.0293002","-0.0468658"
"404","4526275340134","10.0265","0.209702","-0.641815","0","0","0","0.0409068","-0.963688","0.263878","-0.0368755","-0.265375","-0.96344","0.998482","0.0296806","-0.0463922"
"404","4526292124802","10.1223","0.171387","-0.68013","0","0","0","0.0404875","-0.966812","0.252262","-0.037953","-0.253775","-0.966518","0.998459","0.0295578","-0.0469681"
"404","4526308878952","10.1415","0.0947571","-0.469391","0","0","0","0.0413853","-0.958684","0.281448","-0.037741","-0.282989","-0.958381","0.99843","0.0290407","-0.0478932"
"404","4526325663620","10.0457","0.0947571","-0.316116","0","0","0","0.0410686","-0.95766","0.284957","-0.0385926","-0.286506","-0.957301","0.998411","0.0283177","-0.048725"
"404","4526342539841","9.91159","0.286331","-0.182007","0","0","0","0.0396343","-0.959912","0.277487","-0.0390937","-0.278982","-0.9595","0.998449","0.0271811","-0.0485837"
"404","4526359232956","9.87326","0.401291","-0.162857","0","0","0","0.0387171","-0.959389","0.279417","-0.0383713","-0.280848","-0.958985","0.998513","0.0264076","-0.0476866"
"404","4526376017624","9.93074","0.439606","-0.162857","0","0","0","0.0386607","-0.958831","0.281334","-0.0368547","-0.282722","-0.958494","0.998572","0.0266876","-0.0462676"
"404","4526392832810","9.96906","0.382126","-0.182007","0","0","0","0.0399453","-0.950801","0.307215","-0.0341512","-0.30858","-0.950585","0.998618","0.0274796","-0.0447973"
"404","4526409586960","9.94991","0.324646","-0.258636","0","0","0","0.0409794","-0.943997","0.327401","-0.03169","-0.328739","-0.943889","0.998657","0.0283047","-0.0433868"
"404","4526426432663","9.93074","0.401291","-0.373596","0","0","0","0.0400025","-0.954631","0.295093","-0.0317306","-0.296394","-0.954538","0.998696","0.0288205","-0.0421475"
"404","4526443217331","10.0074","0.55455","-0.450226","0","0","0","0.040064","-0.955067","0.293671","-0.0309125","-0.294951","-0.955012","0.998719","0.0291835","-0.0413404"
"404","4526460001999","9.98822","0.516235","-0.431061","0","0","0","0.0407055","-0.955454","0.29232","-0.0305045","-0.293615","-0.955437","0.998705","0.0299744","-0.0410974"
"404","4526476695114","10.0457","0.458755","-0.450226","0","0","0","0.042221","-0.964354","0.261224","-0.0316619","-0.262617","-0.96438","0.998607","0.0324463","-0.0416212"
"404","4526493510300","10.3139","0.650345","-0.852554","0","0","0","0.0432619","-0.954977","0.293508","-0.0302241","-0.2949","-0.95505","0.998607","0.0324463","-0.0416212"
"404","4526510417038","10.084","0.880249","-0.62265","0","0","0","0.042595","-0.968402","0.24573","-0.032436","-0.247164","-0.968431","0.998566","0.0332798","-0.041939"
"404","4526527079636","10.2564","0.841919","-1.17824","0","0","0","0.0448054","-0.970377","0.237406","-0.0344947","-0.239005","-0.970405","0.9984","0.0352902","-0.0441816"
"404","4526543864304","10.0265","0.880249","-0.718445","0","0","0","0.0495905","-0.958105","0.282091","-0.0332481","-0.283865","-0.958288","0.998216","0.038143","-0.0459322"
"404","4526560618454","9.89243","0.535385","-0.62265","0","0","0","0.053393","-0.95424","0.294238","-0.0347393","-0.296255","-0.954477","0.997969","0.0407408","-0.0489675"
"404","4526577464157","9.85411","0.228867","-0.469391","0","0","0","0.0534485","-0.972251","0.227752","-0.039106","-0.229941","-0.972418","0.997805","0.0430679","-0.0503108"
"404","4526594248825","9.87326","0.113907","-0.124527","0","0","0","0.0544542","-0.967828","0.24565","-0.0383215","-0.247859","-0.968038","0.997781","0.0433","-0.0505855"
"404","4526611002976","10.0648","-0.135147","-0.316116","0","0","0","0.0535271","-0.965198","0.255984","-0.0373832","-0.258109","-0.965392","0.997866","0.0421051","-0.049898"
"404","4526627757126","9.98822","-0.0393524","-0.56517","0","0","0","0.05181","-0.960843","0.272208","-0.0353144","-0.274166","-0.961034","0.998032","0.0401783","-0.0481361"
"404","4526644572312","9.77748","0.324646","-0.488541","0","0","0","0.0497186","-0.953568","0.297046","-0.034546","-0.298878","-0.953666","0.998166","0.0371532","-0.0478017"
"404","4526661326462","9.75832","0.55455","-0.507706","0","0","0","0.0486885","-0.949957","0.308562","-0.0351076","-0.310365","-0.949969","0.998197","0.0354197","-0.0484619"
"404","4526678141647","9.93074","0.61203","-0.660965","0","0","0","0.0482479","-0.953745","0.296719","-0.0357106","-0.298522","-0.953734","0.998197","0.0354197","-0.0484619"
"404","4526694956833","9.96906","0.573715","-0.871704","0","0","0","0.0494507","-0.954435","0.294292","-0.0359067","-0.296161","-0.954463","0.998131","0.0366318","-0.048916"
"404","4526711649948","9.94991","0.516235","-0.871704","0","0","0","0.0497726","-0.963544","0.262879","-0.0382548","-0.264851","-0.96353","0.998028","0.037901","-0.0500425"
"404","4526728495651","9.93074","0.55455","-0.948334","0","0","0","0.0524333","-0.955158","0.291417","-0.0384234","-0.293532","-0.955177","0.997885","0.0388859","-0.0520913"
"404","4526745280319","9.94991","0.63118","-0.948334","0","0","0","0.0536663","-0.956248","0.287592","-0.0402562","-0.289845","-0.956227","0.997747","0.0397398","-0.0540499"
"404","4526762095505","9.94991","0.726974","-0.986664","0","0","0","0.0559472","-0.951255","0.303287","-0.0412386","-0.305705","-0.951233","0.997582","0.0407117","-0.0563318"
"404","4526778849655","10.0265","0.841919","-0.948334","0","0","0","0.0556127","-0.965815","0.253197","-0.0460981","-0.255803","-0.965629","0.997388","0.0420293","-0.0587481"
"404","4526795603806","10.1606","0.841919","-1.00581","0","0","0","0.0557796","-0.976327","0.208983","-0.0505051","-0.2118","-0.976007","0.997165","0.0438866","-0.0611236"
"404","4526812480026","10.199","0.765289","-0.986664","0","0","0","0.0610361","-0.963635","0.26016","-0.0489304","-0.263221","-0.963494","0.996936","0.0460782","-0.063217"
"404","4526829234177","10.0648","0.841919","-0.890869","0","0","0","0.0634765","-0.963353","0.260618","-0.050453","-0.263909","-0.963227","0.996707","0.0479933","-0.0653561"
"404","4526845988327","9.96906","0.899399","-0.737595","0","0","0","0.067151","-0.965531","0.251478","-0.0527581","-0.255131","-0.965466","0.996347","0.0515645","-0.0680719"
"404","4526862742478","9.98822","0.861084","-0.450226","0","0","0","0.067151","-0.965531","0.251478","-0.0527581","-0.255131","-0.965466","0.996347","0.0515645","-0.0680719"
"404","4526879557663","10.1223","0.592865","-0.201172","0","0","0","0.0686436","-0.96813","0.24086","-0.0528883","-0.244621","-0.968175","0.996238","0.0537204","-0.0679944"
"404","4526896342331","10.0074","0.458755","-0.296951","0","0","0","0.0705492","-0.962911","0.260431","-0.0494936","-0.264139","-0.963214","0.99628","0.0550643","-0.0662927"
"404","4526913126999","9.83495","0.420441","-0.392746","0","0","0","0.0674862","-0.975108","0.211209","-0.0507153","-0.21477","-0.975347","0.99643","0.0551109","-0.063947"
"404","4526929942185","9.68169","0.382126","-0.68013","0","0","0","0.0681667","-0.96799","0.241553","-0.0471409","-0.244971","-0.968384","0.99656","0.0546245","-0.0623308"
"404","4526946665817","9.47095","0.305496","-1.02498","0","0","0","0.0673057","-0.968422","0.240062","-0.0467133","-0.243402","-0.9688","0.996638","0.0539917","-0.0616205"
"404","4526964335495","9.22188","0.190536","-1.36983","0","0","0","0.0656099","-0.971906","0.226038","-0.0518193","-0.229539","-0.971919","0.996499","0.0520544","-0.0654235"
"404","4526980326706","9.04945","0.133072","-1.46562","0","0","0","0.0600018","-0.987915","0.142914","-0.0617643","-0.146572","-0.98727","0.996286","0.050411","-0.0698124"
"404","4526997050339","9.01114","0.133072","-1.5614","0","0","0","0.068328","-0.954262","0.29106","-0.0569551","-0.294997","-0.953799","0.996036","0.0485938","-0.0745066"
"404","4527014658981","8.93451","0.133072","-1.59972","0","0","0","0.0681877","-0.954169","0.296622","-0.0618897","-0.300808","-0.951674","0.995728","0.0468588","-0.0795658"
"404","4527030589157","9.93074","0.74614","-1.13992","0","0","0","0.0640796","-0.974505","0.21502","-0.0714152","-0.219389","-0.97302","0.995386","0.046995","-0.0836529"
"404","4527047556931","10.8312","0.803604","-0.852554","0","0","0","0.0706951","-0.957713","0.278904","-0.068063","-0.283583","-0.956529","0.995173","0.0486389","-0.0852327"
"404","4527064189011","11.5017","0.286331","-1.04413","0","0","0","0.0682318","-0.967186","0.244737","-0.0705321","-0.249371","-0.965836","0.995173","0.0486389","-0.0852327"
"404","4527080973679","11.3868","-0.173462","-0.948334","0","0","0","0.0642533","-0.976639","0.205054","-0.07375","-0.209564","-0.97501","0.995205","0.0475249","-0.0854923"
"404","4527097697312","10.7737","-0.307571","-1.04413","0","0","0","0.0649616","-0.974573","0.214448","-0.0731269","-0.218973","-0.972987","0.995205","0.0475249","-0.0854923"
"404","4527114543015","10.4672","-0.154312","-0.546021","0","0","0","0.0615813","-0.973029","0.222311","-0.0737653","-0.226562","-0.9712","0.995372","0.0434089","-0.0857278"
"404","4527131327683","10.448","0.190536","-0.143692","0","0","0","0.056561","-0.965977","0.252367","-0.0713455","-0.256036","-0.964031","0.995847","0.0365212","-0.0833998"
"404","4527148234421","10.448","0.956879","0.181992","0","0","0","0.0601437","-0.951583","0.30145","-0.0683525","-0.305214","-0.949827","0.995847","0.0365212","-0.0833998"
"404","4527164897019","10.2564","1.37836","0.124527","0","0","0","0.0573069","-0.955433","0.289593","-0.0649135","-0.293022","-0.9539","0.996244","0.0358666","-0.0788126"
"404","4527181620651","9.93074","0.956879","-0.201172","0","0","0","0.0564274","-0.981514","0.182882","-0.0597648","-0.186166","-0.980699","0.996616","0.0444083","-0.0691648"
"404","4527198466355","9.75832","-0.173462","-0.62265","0","0","0","0.0564274","-0.981514","0.182882","-0.0597648","-0.186166","-0.980699","0.996616","0.0444083","-0.0691648"
"404","4527215281540","9.64337","-1.20801","-0.833389","0","0","0","0.0604091","-0.971844","0.22775","-0.0547163","-0.231048","-0.971403","0.996673","0.0462199","-0.0671331"
"404","4527232066208","9.64337","-1.51454","-0.546021","0","0","0","0.0455039","-0.97913","0.198076","-0.0606863","-0.200624","-0.977787","0.997119","0.0324726","-0.068549"
"404","4527249644333","9.52841","-1.45708","-0.431061","0","0","0","0.0370109","-0.974766","0.220142","-0.0610829","-0.222087","-0.973112","0.997446","0.0225688","-0.0677612"
"404","4527265574509","9.27936","-0.72905","-0.392746","0","0","0","0.0312246","-0.966758","0.253779","-0.0598328","-0.255255","-0.965021","0.99772","0.0149481","-0.0658141"
"404","4527282511765","9.4901","-0.441681","-0.603485","0","0","0","0.0312246","-0.966758","0.253779","-0.0598328","-0.255255","-0.965021","0.99772","0.0149481","-0.0658141"
"404","4527299174362","9.87326","-0.230942","-0.948334","0","0","0","0.0287883","-0.957016","0.288602","-0.058832","-0.289843","-0.955264","0.997853","0.0105214","-0.0646472"
"404","4527315989548","9.8158","-0.0585175","-1.08244","0","0","0","0.0208092","-0.975515","0.218947","-0.0643087","-0.219847","-0.973412","0.997713","0.00617573","-0.0673089"
"404","4527332774216","9.60506","0.267181","-1.10161","0","0","0","0.0244713","-0.961265","0.274538","-0.0630062","-0.275557","-0.959218","0.997713","0.00617573","-0.0673089"
"404","4527349528366","9.72","0.55455","-0.967499","0","0","0","0.0285074","-0.944175","0.32821","-0.0640549","-0.329394","-0.942017","0.997539","0.00583097","-0.0698692"
"404","4527366313034","10.0074","0.707825","-0.56517","0","0","0","0.0298877","-0.962172","0.270799","-0.067998","-0.27225","-0.959821","0.997238","0.010273","-0.0735627"
"404","4527383189255","10.1223","0.535385","-0.277802","0","0","0","0.032303","-0.951807","0.30499","-0.0668844","-0.306524","-0.94951","0.997238","0.010273","-0.0735627"
"404","4527399882370","9.94991","0.0181122","-0.220322","0","0","0","0.0345807","-0.95367","0.29886","-0.0649242","-0.300551","-0.951553","0.997291","0.0135021","-0.0723096"
"404","4527416636521","9.62421","-0.403366","-0.392746","0","0","0","0.0336124","-0.96189","0.271362","-0.0629712","-0.273015","-0.959947","0.997449","0.0151781","-0.0697481"
"404","4527433512741","9.50926","-0.518311","-0.431061","0","0","0","0.0320837","-0.960663","0.275856","-0.0606235","-0.27736","-0.958852","0.997645","0.0140402","-0.0671376"
"404","4527450388962","9.77748","-0.326736","-0.431061","0","0","0","0.0275128","-0.950317","0.310067","-0.0597211","-0.311193","-0.948468","0.997836","0.00757746","-0.0653157"
"404","4527467021042","10.1798","-0.307571","-0.603485","0","0","0","0.0226203","-0.962704","0.269609","-0.0608086","-0.270504","-0.960797","0.997893","0.00533893","-0.0646596"
"404","4527483744675","10.3331","-0.326736","-0.660965","0","0","0","0.0204896","-0.971538","0.235997","-0.0615593","-0.236824","-0.9696","0.997893","0.00533893","-0.0646596"
"404","4527500559860","10.0648","-0.422516","-0.871704","0","0","0","0.0235844","-0.948214","0.316756","-0.0601496","-0.317616","-0.94631","0.997911","0.00326536","-0.0645254"
"404","4527517436081","9.85411","-0.345886","-0.929184","0","0","0","0.0205934","-0.953529","0.300598","-0.0614793","-0.301301","-0.951545","0.997896","0.00111495","-0.0648271"
"404","4527534190231","9.87326","-0.135147","-0.967499","0","0","0","0.0183559","-0.955303","0.295059","-0.0636749","-0.295627","-0.953179","0.997802","-0.0012914","-0.0662553"
"404","4527550944382","10.084","0.0947571","-1.31235","0","0","0","0.0168424","-0.95715","0.289101","-0.0658362","-0.289576","-0.954888","0.997688","-0.0029507","-0.0678923"
"404","4527567698532","10.6396","0.248016","-2.21278","0","0","0","0.0157703","-0.969526","0.24448","-0.0720146","-0.244977","-0.966851","0.997279","-0.00235853","-0.0736834"
"404","4527584544235","11.3868","0.248016","-1.82962","0","0","0","0.0242726","-0.951077","0.307999","-0.0776485","-0.308953","-0.947902","0.996685","-0.000907624","-0.0813488"
"404","4527601328903","11.0802","-0.154312","-1.61888","0","0","0","0.0189508","-0.975962","0.217114","-0.0837894","-0.217939","-0.972359","0.996303","0.000235158","-0.0859054"
"404","4527618113571","10.8312","-1.15054","-2.09784","0","0","0","0.0194744","-0.97458","0.22319","-0.0836693","-0.224038","-0.970982","0.99591","-0.00159872","-0.0903338"
"404","4527634898239","11.3293","-2.20424","-2.15532","0","0","0","0.0181075","-0.961161","0.275394","-0.0950495","-0.275846","-0.956491","0.995308","-0.00885637","-0.0963528"
"404","4527651621872","12.5363","-2.70236","-2.36606","0","0","0","0.0141288","-0.943976","0.329713","-0.103306","-0.329359","-0.938536","0.994549","-0.0208008","-0.102171"
"404","4527669322067","12.8428","-2.35751","-2.88333","0","0","0","0.00916799","-0.92893","0.370143","-0.113212","-0.368742","-0.922612","0.993528","-0.0334462","-0.108547"
"404","4527685313278","12.383","-1.6295","-2.99828","0","0","0","-0.0140132","-0.971172","0.237966","-0.123168","-0.2345","-0.964282","0.992287","-0.0428224","-0.116331"
"404","4527702006394","11.5592","-1.03558","-2.63428","0","0","0","-0.0244347","-0.987594","0.155117","-0.12153","-0.151078","-0.981023","0.992287","-0.0428224","-0.116331"
"404","4527718730026","10.1415","-0.518311","-1.86794","0","0","0","-0.0172554","-0.97044","0.240726","-0.137481","-0.236172","-0.961937","0.990354","-0.0496937","-0.129341"
"404","4527735606247","9.52841","-0.365051","-1.6572","0","0","0","-0.00816933","-0.952791","0.303516","-0.138318","-0.299532","-0.944007","0.990354","-0.0496937","-0.129341"
"404","4527752451950","9.01114","-0.211777","-1.63805","0","0","0","-0.00753811","-0.953368","0.301716","-0.14101","-0.297696","-0.944189","0.98998","-0.0496623","-0.13219"
"404","4527769145065","8.66629","0.0372772","-1.90625","0","0","0","-0.00309326","-0.946562","0.322507","-0.1429","-0.31878","-0.936995","0.989732","-0.0489847","-0.134278"
"404","4527785929733","8.35976","0.113907","-2.53848","0","0","0","0.00176252","-0.941003","0.338393","-0.144934","-0.335061","-0.930982","0.98944","-0.0474038","-0.136974"
"404","4527802653366","7.93828","0.209702","-3.30481","0","0","0","-0.000245486","-0.953469","0.301492","-0.148246","-0.298126","-0.942944","0.98895","-0.0449265","-0.141275"
"404","4527819529587","7.63174","0.458755","-3.45808","0","0","0","0.00323375","-0.956564","0.291503","-0.1553","-0.288449","-0.944817","0.987862","-0.0422152","-0.149487"
"404","4527836314255","7.80417","1.11014","-3.64966","0","0","0","0.0110738","-0.954111","0.299248","-0.165075","-0.296905","-0.940531","0.986219","-0.0389831","-0.160787"
"404","4527853068405","9.58589","2.62364","-2.73006","0","0","0","0.0156475","-0.960187","0.27892","-0.175484","-0.277262","-0.944633","0.984358","-0.0341649","-0.172836"
"404","4527869883591","10.8503","3.17923","-1.90625","0","0","0","0.0209049","-0.969258","0.245156","-0.185027","-0.244725","-0.951775","0.982511","-0.0254638","-0.184455"
"404","4527886607224","11.3868","2.5087","-1.6572","0","0","0","0.0446224","-0.959549","0.277984","-0.183573","-0.281399","-0.941868","0.981993","-0.00900189","-0.188704"
"404","4527903422409","11.0994","0.861084","-1.40814","0","0","0","0.0420223","-0.983704","0.174817","-0.183027","-0.17959","-0.966565","0.982209","0.00862107","-0.187591"
"404","4527920226399","10.3139","-0.824844","-0.910019","0","0","0","0.049667","-0.978043","0.200231","-0.176728","-0.207422","-0.962156","0.982561","0.0202219","-0.184836"
"404","4527937011067","9.43263","-1.84024","-0.450226","0","0","0","0.0642404","-0.97081","0.231086","-0.17085","-0.238845","-0.95591","0.983201","0.0219269","-0.181207"
"404","4527953704182","8.95367","-2.08929","-0.335281","0","0","0","0.0511146","-0.978009","0.2022","-0.168871","-0.208014","-0.963438","0.984312","0.0151","-0.17579"
"404","4527970549885","8.91536","-1.72528","-0.833389","0","0","0","0.0349546","-0.966235","0.25528","-0.1594","-0.257556","-0.953025","0.986595","-0.00737912","-0.163021"
"404","4527987426106","9.27936","-0.901474","-1.42729","0","0","0","0.0346231","-0.966768","0.253298","-0.159473","-0.255547","-0.953553","0.986595","-0.00737912","-0.163021"
"404","4528004149739","9.52841","0.803604","-1.52309","0","0","0","0.0278718","-0.963135","0.267571","-0.158319","-0.26855","-0.950166","0.986995","-0.0158787","-0.159967"
"404","4528020873371","9.56674","1.64658","-1.52309","0","0","0","0.032882","-0.950989","0.307472","-0.157485","-0.308725","-0.938023","0.986974","-0.0175782","-0.159918"
"404","4528037627522","9.54758","2.08722","-1.25487","0","0","0","0.0401536","-0.948615","0.313874","-0.155153","-0.316236","-0.935907","0.987074","-0.0111184","-0.159878"
"404","4528054503742","9.72","2.12553","-1.06329","0","0","0","0.0543151","-0.93878","0.340209","-0.150055","-0.344517","-0.92671","0.987185","-0.000715653","-0.159581"
"404","4528071318928","9.8158","2.10637","-0.890869","0","0","0","0.0760149","-0.933811","0.349597","-0.13712","-0.357071","-0.923958","0.987633","0.0222979","-0.155187"
"404","4528088042561","9.68169","2.06805","-0.526855","0","0","0","0.0700872","-0.948214","0.309803","-0.140242","-0.316849","-0.938051","0.987633","0.0222979","-0.155187"
"404","4528104796711","9.14525","1.95311","-0.373596","0","0","0","0.0887831","-0.940648","0.327567","-0.123155","-0.336709","-0.93352","0.988408","0.0425395","-0.145739"
"404","4528121581379","8.99199","1.66573","-0.431061","0","0","0","0.0887831","-0.940648","0.327567","-0.123155","-0.336709","-0.93352","0.988408","0.0425395","-0.145739"
"404","4528138427082","9.31767","1.24425","-0.411911","0","0","0","0.092342","-0.947375","0.306518","-0.117297","-0.31604","-0.941467","0.988794","0.0509834","-0.140308"
"404","4528155211750","9.37515","1.03351","-0.469391","0","0","0","0.0956961","-0.955827","0.277915","-0.108469","-0.287547","-0.951605","0.989483","0.0609199","-0.131194"
"404","4528171965901","9.35599","0.861084","-0.258636","0","0","0","0.097756","-0.952963","0.286888","-0.102783","-0.296394","-0.949519","0.989889","0.0633341","-0.126922"
"404","4528188689534","9.04945","0.841919","-0.00958252","0","0","0","0.0976124","-0.953376","0.285562","-0.102919","-0.295064","-0.949919","0.989889","0.0633341","-0.121581"
"404","4528205535237","8.78125","1.01434","0.105362","0","0","0","0.0936847","-0.964104","0.248448","-0.101089","-0.257467","-0.960985","0.990456","0.0649141","-0.121581"
"404","4528222380940","8.83871","1.16762","0.143677","0","0","0","0.0897894","-0.973661","0.209578","-0.098472","-0.218076","-0.970951","0.991081","0.0665435","-0.115459"
"404","4528239104573","9.04945","1.32088","0.239471","0","0","0","0.0985959","-0.951017","0.292995","-0.0835656","-0.301302","-0.94986","0.991613","0.069168","-0.109179"
"404","4528255889241","9.54758","1.37836","-0.00958252","0","0","0","0.0946671","-0.96809","0.232035","-0.0824715","-0.239907","-0.967286","0.992087","0.0724339","-0.102551"
"404","4528272643391","10.1415","0.822769","-0.526855","0","0","0","0.0965804","-0.968931","0.227696","-0.0755048","-0.235239","-0.969","0.992457","0.0763943","-0.0958783"
"404","4528289489094","10.2948","0.324646","-0.967499","0","0","0","0.0980365","-0.970752","0.219156","-0.0708255","-0.226465","-0.971441","0.992659","0.0797148","-0.0909558"
"404","4528306273762","10.3139","0.0564423","-1.2932","0","0","0","0.0968046","-0.962125","0.254841","-0.0671798","-0.261775","-0.962788","0.993034","0.0760821","-0.0899765"
"404","4528323027912","10.084","0.209702","-1.15909","0","0","0","0.0975026","-0.959332","0.264906","-0.0661628","-0.271833","-0.960067","0.993034","0.0760821","-0.0899765"
"404","4528339782063","10.199","0.55455","-0.795074","0","0","0","0.0939893","-0.951593","0.292637","-0.0683634","-0.299414","-0.951671","0.993223","0.0694412","-0.0931958"
"404","4528356597248","10.7545","0.956879","-0.469391","0","0","0","0.0947476","-0.948187","0.303257","-0.0673085","-0.310032","-0.948341","0.993223","0.0694412","-0.0931958"
"404","4528373473469","11.1186","1.28256","-0.258636","0","0","0","0.0939666","-0.947693","0.305039","-0.0660942","-0.311657","-0.947893","0.993379","0.0689089","-0.0919224"
"404","4528390166584","11.1952","1.09099","0.220322","0","0","0","0.0969255","-0.93934","0.329008","-0.0549307","-0.335109","-0.940577","0.993775","0.0730932","-0.0840792"
"404","4528406951252","10.9078","0.74614","0.603485","0","0","0","0.0944089","-0.947382","0.305866","-0.0503409","-0.311388","-0.948948","0.99426","0.0741916","-0.0770899"
"404","4528423705403","9.96906","0.976028","1.13991","0","0","0","0.0951719","-0.942482","0.320423","-0.0488831","-0.32592","-0.944133","0.99426","0.0741916","-0.0770899"
"404","4528440551106","10.1798","1.45499","0.910019","0","0","0","0.0920176","-0.927682","0.361856","-0.0267742","-0.365571","-0.930398","0.995397","0.0759247","-0.0584769"
"404","4528457488362","11.0611","2.08722","0.373581","0","0","0","0.0920176","-0.927682","0.361856","-0.0267742","-0.365571","-0.930398","0.995397","0.0759247","-0.0584769"
"404","4528474089924","12.1914","2.77692","0.316101","0","0","0","0.0925433","-0.938829","0.331716","-0.0212404","-0.334931","-0.942003","0.995482","0.0801303","-0.0509368"
"404","4528490874592","13.1877","2.35542","-0.69928","0","0","0","0.103967","-0.955343","0.276606","-0.0131823","-0.279412","-0.960081","0.994493","0.0961709","-0.0416434"
"404","4528507689778","14.2605","1.28256","-2.40437","0","0","0","0.109614","-0.936736","0.332431","-0.00800844","-0.335267","-0.942089","0.993942","0.100604","-0.0442518"
"404","4528524413410","15.1035","0.171387","-2.95996","0","0","0","0.110459","-0.945646","0.305865","-0.0206236","-0.309863","-0.950558","0.993667","0.0986895","-0.0537297"
"404","4528541472737","14.0498","-0.499161","-4.28189","0","0","0","0.110459","-0.945646","0.305865","-0.0206236","-0.309863","-0.950558","0.993667","0.0986895","-0.0537297"
"404","4528557494465","9.64337","1.78069","-3.01744","0","0","0","0.105445","-0.942875","0.316017","-0.0518057","-0.322566","-0.945128","0.993075","0.0832876","-0.0828594"
"404","4528574157063","7.45932","2.91103","-1.58057","0","0","0","0.114447","-0.942919","0.31274","-0.0592677","-0.320729","-0.945315","0.99166","0.0896535","-0.0925912"
"404","4528590972248","5.98413","3.27502","-0.775909","0","0","0","0.126289","-0.945309","0.300737","-0.0603888","-0.309928","-0.94884","0.990154","0.101667","-0.0962266"
"404","4528607756916","5.29443","3.06429","-0.986664","0","0","0","0.133922","-0.968334","0.210698","-0.0701161","-0.221339","-0.972673","0.988508","0.115489","-0.097538"
"404","4528624511067","5.75424","1.85732","-1.35066","0","0","0","0.146721","-0.964437","0.21985","-0.0686438","-0.231647","-0.970375","0.986793","0.127283","-0.10019"
"404","4528641326252","7.2869","-0.250092","-1.84879","0","0","0","0.152077","-0.960582","0.232711","-0.0703699","-0.245375","-0.966871","0.98586","0.130663","-0.104912"
"404","4528658110920","9.22188","-2.52994","-2.28943","0","0","0","0.139843","-0.973195","0.182583","-0.0864358","-0.195689","-0.976849","0.986394","0.120824","-0.111484"
"404","4528674865071","11.3868","-3.81354","-2.84502","0","0","0","0.126505","-0.956959","0.261202","-0.0883417","-0.273139","-0.957909","0.988024","0.0981056","-0.119093"
"404","4528691680256","12.019","-3.23878","-3.51555","0","0","0","0.130487","-0.94318","0.305589","-0.0823461","-0.317469","-0.944686","0.988024","0.0981056","-0.119093"
"404","4528708464924","10.0265","-0.230942","-2.34689","0","0","0","0.100914","-0.926703","0.361991","-0.108844","-0.371948","-0.92185","0.988923","0.0536272","-0.138401"
"404","4528725249592","9.41347","1.18677","-1.63805","0","0","0","0.0996983","-0.92865","0.357308","-0.114276","-0.367408","-0.923013","0.988434","0.051191","-0.142752"
"404","4528742034260","9.50926","2.22133","-1.12076","0","0","0","0.0957613","-0.954446","0.2826","-0.121774","-0.293005","-0.948325","0.987928","0.0563996","-0.144285"
"404","4528758818928","9.93074","2.96849","-1.00581","0","0","0","0.109436","-0.942226","0.316596","-0.113449","-0.328268","-0.937747","0.987498","0.0667054","-0.142819"
"404","4528775603596","10.084","3.1026","-1.1974","0","0","0","0.115162","-0.957113","0.265843","-0.113386","-0.27854","-0.953708","0.986854","0.0796881","-0.1406"
"404","4528792418782","10.0648","2.54701","-1.6572","0","0","0","0.12201","-0.966336","0.226515","-0.114297","-0.240382","-0.963926","0.985926","0.0917182","-0.139779"
"404","4528809172932","9.98822","1.43584","-1.59972","0","0","0","0.13374","-0.955855","0.261638","-0.108621","-0.276558","-0.954839","0.985046","0.0992806","-0.140813"
"404","4528825927082","9.89243","0.477921","-1.23572","0","0","0","0.130614","-0.966118","0.222613","-0.114067","-0.237689","-0.96462","0.98485","0.1006","-0.141248"
"404","4528842711750","9.26021","-0.460846","-0.469391","0","0","0","0.122053","-0.975206","0.184598","-0.118265","-0.198953","-0.972847","0.985452","0.0969076","-0.139615"
"404","4528859526936","8.83871","-1.16969","-0.201172","0","0","0","0.114224","-0.974017","0.195559","-0.114067","-0.208404","-0.971368","0.986885","0.0886472","-0.134908"
"404","4528876281086","8.28313","-1.68697","-0.488541","0","0","0","0.095495","-0.985448","0.140616","-0.117621","-0.151442","-0.981443","0.988456","0.0771835","-0.130372"
"404","4528893065754","8.32144","-2.05098","-0.546021","0","0","0","0.0838747","-0.983163","0.162346","-0.114921","-0.171377","-0.97848","0.989827","0.0634128","-0.12736"
"404","4528909880940","8.58966","-1.7636","-0.584335","0","0","0","0.0749652","-0.973958","0.213976","-0.110885","-0.22139","-0.968861","0.991002","0.0489042","-0.124594"
"404","4528926635090","9.01114","-1.01643","-0.507706","0","0","0","0.068472","-0.962294","0.263252","-0.107612","-0.269456","-0.956981","0.991832","0.0371972","-0.122005"
"404","4528943450276","9.62421","-0.307571","-0.546021","0","0","0","0.0602591","-0.964605","0.256723","-0.106747","-0.261943","-0.959161","0.992459","0.0303937","-0.118753"
"404","4528960234944","9.79663","0.190536","-0.526855","0","0","0","0.0622111","-0.94952","0.307477","-0.101011","-0.312482","-0.944538","0.992938","0.0277021","-0.115352"
"404","4528977019612","9.83495","-0.0585175","0.316101","0","0","0","0.0559969","-0.963201","0.262885","-0.100287","-0.267393","-0.958355","0.993382","0.0273009","-0.11157"
"404","4528993804280","9.62421","-0.690735","1.12076","0","0","0","0.0514928","-0.962733","0.265507","-0.092388","-0.269312","-0.958611","0.994391","0.0248319","-0.102813"
"404","4529010558430","9.43263","-1.26549","1.27402","0","0","0","0.0429939","-0.96047","0.275045","-0.0818075","-0.27776","-0.957161","0.99572","0.0186513","-0.0905155"
"404","4529027373616","9.58589","-1.3996","0.795059","0","0","0","0.0345425","-0.94821","0.315761","-0.0718433","-0.317488","-0.945537","0.996818","0.00997595","-0.0790893"
"404","4529044158284","9.96906","-1.01643","0.335266","0","0","0","0.0264323","-0.936861","0.3487","-0.0658167","-0.349696","-0.934548","0.997482","0.00175196","-0.0709044"
"404","4529060942951","9.91159","-0.250092","-0.0478973","0","0","0","0.0202721","-0.934497","0.355394","-0.0622622","-0.355957","-0.932426","0.997854","-0.00322542","-0.0653998"
"404","4529077697102","9.8158","0.343811","-0.56517","0","0","0","0.0181773","-0.938549","0.344667","-0.0600593","-0.345126","-0.936633","0.998029","-0.00367497","-0.062642"
"404","4529094512287","9.77748","0.707825","-1.00581","0","0","0","0.0214725","-0.934893","0.354278","-0.0591479","-0.354927","-0.933021","0.998018","-0.00092048","-0.0629181"
"404","4529111296955","9.96906","0.573715","-1.21655","0","0","0","0.0315028","-0.899425","0.435939","-0.0574716","-0.437064","-0.897592","0.99785","0.00322259","-0.0654601"
"404","4529128051106","11.2527","-0.499161","-1.1974","0","0","0","0.0301897","-0.924967","0.378846","-0.0618202","-0.380021","-0.92291","0.997631","0.00444207","-0.0686544"
"404","4529144866291","12.7087","-0.805695","-1.04413","0","0","0","0.0276757","-0.923446","0.38273","-0.0650949","-0.383729","-0.921149","0.997495","0.00057972","-0.0707315"
"404","4529161650959","12.2872","0.209702","-0.660965","0","0","0","0.0274542","-0.907091","0.420039","-0.0660336","-0.420926","-0.904689","0.99744","-0.00289921","-0.0714546"
"404","4529178405110","11.54","0.899399","-0.0862122","0","0","0","0.0247839","-0.932322","0.360779","-0.0650997","-0.361629","-0.930046","0.997571","-0.000436513","-0.0696565"
"404","4529195220295","11.54","0.63118","0.69928","0","0","0","0.0272812","-0.934357","0.355293","-0.0594466","-0.356313","-0.932474","0.997859","0.00431798","-0.065265"
"404","4529212004963","11.0419","0.209702","1.65718","0","0","0","0.0300564","-0.906102","0.42199","-0.0479167","-0.423001","-0.904861","0.998399","0.00697653","-0.0561313"
"404","4529228789631","10.3714","-0.65242","1.46561","0","0","0","0.0222426","-0.93159","0.362829","-0.0381175","-0.363446","-0.930835","0.999026","0.00687404","-0.0435939"
"404","4529245604817","10.448","-1.78276","0.0670471","0","0","0","0.0166386","-0.89948","0.436645","-0.0306918","-0.436959","-0.898957","0.99939","0.00155592","-0.034877"
"404","4529262358967","12.2489","-2.30003","-0.910019","0","0","0","0.00495491","-0.916521","0.399957","-0.0354056","-0.399872","-0.915887","0.999361","-0.00962259","-0.0344313"
"404","4529279113117","12.9961","-1.24632","-1.23572","0","0","0","0.000740244","-0.873727","0.486416","-0.0425474","-0.486003","-0.872921","0.999094","-0.0200495","-0.0375346"
"404","4529295897785","12.4405","-0.269257","-2.11699","0","0","0","-0.00118156","-0.88365","0.468146","-0.0488555","-0.467536","-0.882623","0.998805","-0.0239144","-0.0426187"
"404","4529312712971","11.3484","-0.0585175","-2.97913","0","0","0","-0.00141854","-0.922221","0.386662","-0.0569854","-0.385959","-0.920754","0.998374","-0.0233402","-0.0520056"
"404","4529329497639","10.1032","-0.57579","-3.32397","0","0","0","0.00844615","-0.895698","0.444584","-0.0684472","-0.444074","-0.893372","0.997619","-0.022885","-0.0650587"
"404","4529346282307","8.49387","-0.824844","-3.64966","0","0","0","0.0108228","-0.905893","0.423369","-0.0823953","-0.422762","-0.902487","0.996541","-0.0251162","-0.0792168"
"404","4529363066975","7.30606","-0.460846","-3.82208","0","0","0","0.0106795","-0.923268","0.384008","-0.0988207","-0.383124","-0.918395","0.995048","-0.02814","-0.0953296"
"404","4529379851643","6.76962","0.573715","-3.82208","0","0","0","0.0261927","-0.888315","0.458487","-0.112362","-0.458354","-0.881638","0.993322","-0.0284239","-0.111818"
"404","4529396636311","7.7467","3.31334","-2.99828","0","0","0","0.0273439","-0.927704","0.372313","-0.127111","-0.372655","-0.919223","0.991512","-0.0221897","-0.128111"
"404","4529413420979","10.0265","4.59695","-1.92542","0","0","0","0.0446055","-0.942845","0.330231","-0.129645","-0.333228","-0.93389","0.990557","-0.0011563","-0.1371"
"404","4529430236164","11.2335","4.21379","-1.94456","0","0","0","0.0616305","-0.960024","0.273048","-0.126816","-0.278883","-0.951915","0.99001","0.0240402","-0.138934"
"404","4529446990315","11.4251","2.24048","-2.55763","0","0","0","0.081041","-0.959102","0.271211","-0.124461","-0.279714","-0.951982","0.988909","0.0433942","-0.14204"
"404","4529463774983","11.1377","-0.0968323","-2.17447","0","0","0","0.075608","-0.981661","0.174999","-0.135224","-0.183974","-0.973585","0.987926","0.049947","-0.146654"
"404","4529480498616","10.1223","-1.70613","-1.06329","0","0","0","0.0700182","-0.982554","0.172293","-0.138331","-0.180611","-0.973778","0.987908","0.0443488","-0.148564"
"404","4529497313801","8.87703","-2.3192","0.124527","0","0","0","0.0659222","-0.969117","0.237625","-0.13281","-0.244546","-0.960499","0.988947","0.0317593","-0.144829"
"404","4529514159504","8.35976","-2.14677","0.50769","0","0","0","0.0564417","-0.956934","0.284765","-0.125923","-0.289765","-0.948778","0.990433","0.0176921","-0.136855"
"404","4529530883137","8.58966","-1.59117","-0.296951","0","0","0","0.0466096","-0.946588","0.31906","-0.119824","-0.322399","-0.93899","0.9917","0.00553499","-0.128451"
"404","4529547698323","9.45178","-0.269257","-1.61888","0","0","0","0.0350229","-0.957299","0.286971","-0.121251","-0.289096","-0.94959","0.992004","-0.00153816","-0.126199"
"404","4529564482991","10.7929","1.2251","-0.929184","0","0","0","0.0480469","-0.923228","0.381238","-0.119093","-0.384251","-0.915515","0.99172","-0.0014151","-0.128412"
"404","4529581298176","11.4059","2.81523","0.0862122","0","0","0","0.0533437","-0.928155","0.368352","-0.112545","-0.372115","-0.921338","0.992214","0.00769131","-0.124309"
"404","4529598052326","10.6971","2.89186","-0.182007","0","0","0","0.0594017","-0.945835","0.319167","-0.102649","-0.323825","-0.940532","0.992942","0.0231071","-0.116324"
"404","4529614775959","9.01114","2.48953","-0.182007","0","0","0","0.0707845","-0.945867","0.316742","-0.0934981","-0.322432","-0.941964","0.9931","0.0370617","-0.11126"
"404","4529631591145","7.63174","2.12553","0.258636","0","0","0","0.0718691","-0.942046","0.327696","-0.092667","-0.333431","-0.938209","0.9931","0.0370617","-0.11126"
"404","4529648406330","7.17195","1.74237","0.52684","0","0","0","0.0885159","-0.937859","0.335539","-0.0744348","-0.342147","-0.936694","0.99329","0.0579365","-0.100095"
"404","4529665190998","7.44017","1.43584","0.71843","0","0","0","0.0898925","-0.950941","0.296024","-0.0687656","-0.302444","-0.950683","0.993575","0.065103","-0.0925795"
"404","4529681975666","8.91536","1.20593","0.56517","0","0","0","0.0953868","-0.932293","0.3489","-0.0540077","-0.354829","-0.93337","0.993974","0.0701879","-0.0841969"
"404","4529698729817","10.0265","1.2251","0.316101","0","0","0","0.0956197","-0.933083","0.346718","-0.0463948","-0.352113","-0.934807","0.994336","0.0733","-0.0769591"
"404","4529715545002","10.3714","1.30173","-0.0287476","0","0","0","0.0961609","-0.933177","0.346316","-0.0400298","-0.351272","-0.935417","0.994561","0.0760876","-0.0711335"
"404","4529732268635","9.70084","1.62741","0.0670471","0","0","0","0.0985071","-0.927274","0.361193","-0.0338001","-0.365866","-0.930053","0.994562","0.0794085","-0.0673824"
"404","4529749114338","9.0303","1.87648","0.373581","0","0","0","0.101294","-0.933602","0.343696","-0.029763","-0.348162","-0.936962","0.994411","0.0846787","-0.0630534"
"404","4529765868489","8.74294","1.91479","0.833374","0","0","0","0.100512","-0.976461","0.190842","-0.038458","-0.195483","-0.979953","0.994192","0.0911575","-0.0572012"
"404","4529782653157","8.89619","1.74237","1.12076","0","0","0","0.107281","-0.955249","0.275662","-0.0200319","-0.279283","-0.96","0.994027","0.0974681","-0.0490973"
"404","4529799407307","9.0303","1.45499","1.12076","0","0","0","0.108693","-0.965729","0.235698","-0.0144054","-0.238608","-0.971009","0.993971","0.102146","-0.0398467"
"404","4529816222492","9.10693","1.35919","1.10159","0","0","0","0.109332","-0.969467","0.219499","-0.00715016","-0.221584","-0.975115","0.99398","0.105042","-0.031158"
"404","4529833007160","9.62421","1.14845","0.929169","0","0","0","0.109458","-0.960387","0.256274","0.00532157","-0.257254","-0.966329","0.993977","0.107136","-0.0230477"
"404","4529849791828","10.5821","0.382126","-0.316116","0","0","0","0.107265","-0.947701","0.300596","0.0152492","-0.300737","-0.953585","0.994114","0.10687","-0.0178068"
"404","4529866607014","12.2106","-0.230942","-1.67636","0","0","0","0.103485","-0.965545","0.238774","0.00392221","-0.239665","-0.970848","0.994623","0.101405","-0.0210147"
"404","4529883361164","13.1877","-0.192627","-1.52309","0","0","0","0.0972362","-0.931427","0.350699","0.0052928","-0.35188","-0.93603","0.995247","0.0928722","-0.0292856"
"404","4529900176350","13.1877","0.133072","-0.641815","0","0","0","0.0920388","-0.948211","0.304013","-0.00729096","-0.305943","-0.952022","0.995729","0.0854064","-0.035072"
"404","4529916991535","12.4213","-0.0010376","0.910019","0","0","0","0.0868827","-0.927533","0.363502","-0.00266526","-0.365097","-0.930966","0.996215","0.079916","-0.0341927"
"404","4529933715168","11.5784","-0.192627","1.90625","0","0","0","0.0784228","-0.954662","0.287177","-0.00318322","-0.288303","-0.957534","0.996915","0.0741784","-0.0256484"
"404","4529950499836","10.2948","0.190536","2.28941","0","0","0","0.0689116","-0.92798","0.366202","0.0130615","-0.366204","-0.930443","0.997537","0.0689014","-0.0131149"
"404","4529967253987","10.2756","2.0489","1.88708","0","0","0","0.0653936","-0.942687","0.327209","0.0213548","-0.326514","-0.944951","0.997631","0.0687812","-0.00122104"
"404","4529984099690","12.0381","3.48576","0.296951","0","0","0","0.0698787","-0.930435","0.359734","0.0349664","-0.358109","-0.933025","0.996942","0.0777772","0.00750972"
"404","4530000914875","14.6245","3.84978","-3.30481","0","0","0","0.0861344","-0.950241","0.299371","0.031342","-0.297754","-0.954128","0.99579","0.0915661","0.00413554"
"404","4530017669026","15.2567","3.1026","-7.23225","0","0","0","0.104741","-0.947134","0.303258","0.0132698","-0.303577","-0.952714","0.994411","0.103812","-0.0192286"
"404","4530034453694","13.1302","1.64658","-7.23225","0","0","0","0.119946","-0.963741","0.238361","-0.0278055","-0.243261","-0.969562","0.992391","0.109667","-0.0559755"
"404","4530051238362","9.79663","1.18677","-4.62674","0","0","0","0.12605","-0.969198","0.211582","-0.060077","-0.220349","-0.973569","0.990203","0.110007","-0.0860014"
"404","4530068023030","6.88457","1.05267","-2.00204","0","0","0","0.130458","-0.968144","0.213723","-0.0749152","-0.224575","-0.971573","0.98862","0.110738","-0.101826"
"404","4530084807698","5.10286","0.573715","-0.316116","0","0","0","0.132318","-0.968599","0.210496","-0.0795199","-0.222051","-0.971787","0.988012","0.111847","-0.106404"
"404","4530101561848","5.62013","-0.939789","0.52684","0","0","0","0.130849","-0.969137","0.20893","-0.0775932","-0.220106","-0.972385","0.988361","0.111024","-0.103999"
"404","4530118346516","8.03407","-1.01643","-0.411911","0","0","0","0.11815","-0.97805","0.171636","-0.0794754","-0.181606","-0.980154","0.98981","0.102164","-0.0991876"
"404","4530135253254","11.176","-0.0776672","-1.40814","0","0","0","0.115035","-0.959617","0.256715","-0.0704486","-0.265661","-0.961489","0.99086","0.0925194","-0.0981639"
"404","4530151976887","12.3638","1.34004","-2.84502","0","0","0","0.110423","-0.963899","0.242291","-0.0763442","-0.251287","-0.964897","0.990948","0.0880498","-0.101336"
"404","4530168792073","11.3868","2.01057","-3.03659","0","0","0","0.115365","-0.962021","0.247398","-0.0837825","-0.257597","-0.962613","0.989784","0.0903242","-0.110318"
"404","4530185515705","9.41347","1.43584","-2.11699","0","0","0","0.121605","-0.963214","0.239647","-0.0916836","-0.251307","-0.963555","0.988335","0.0952015","-0.118871"
"404","4530202330891","8.4364","0.171387","-0.910019","0","0","0","0.119593","-0.973369","0.195576","-0.100651","-0.207861","-0.972966","0.987708","0.0966747","-0.12283"
"404","4530219115559","8.4364","-0.690735","-0.239487","0","0","0","0.108548","-0.984432","0.138244","-0.106493","-0.149781","-0.982967","0.988371","0.0919768","-0.121093"
"404","4530235900227","9.37515","-0.384201","-0.162857","0","0","0","0.104182","-0.97753","0.183251","-0.0987511","-0.19351","-0.976116","0.989644","0.0835978","-0.116693"
"404","4530252745930","10.1223","0.516235","-0.603485","0","0","0","0.096724","-0.980543","0.170821","-0.0965025","-0.180056","-0.978911","0.990622","0.0781995","-0.112041"
"404","4530269469563","10.3714","1.28256","-1.00581","0","0","0","0.101452","-0.967273","0.232575","-0.0876128","-0.24156","-0.966423","0.990975","0.0776686","-0.109252"
"404","4530286254231","10.5055","1.1293","-1.25487","0","0","0","0.0946808","-0.986481","0.13376","-0.0968615","-0.142854","-0.984993","0.990784","0.0803038","-0.109078"
"404","4530303069416","10.2181","0.324646","-0.948334","0","0","0","0.0982892","-0.981926","0.161743","-0.0945019","-0.171005","-0.980728","0.990661","0.0811099","-0.109602"
"404","4530319854084","9.43263","-0.63327","-0.603485","0","0","0","0.0896163","-0.989359","0.114616","-0.0985556","-0.123323","-0.98746","0.991088","0.0771966","-0.108559"
"404","4530336608235","8.5705","-1.16969","-0.0287476","0","0","0","0.0843501","-0.985366","0.148117","-0.0937828","-0.155837","-0.983321","0.992013","0.0690524","-0.105555"
"404","4530353911701","8.14902","-1.15054","0.469376","0","0","0","0.0597778","-0.990927","0.120375","-0.0863012","-0.12527","-0.988362","0.994474","0.0486935","-0.0930065"
"404","4530370696369","8.99199","-0.59494","0.0478973","0","0","0","0.0557475","-0.982529","0.177566","-0.0779175","-0.181581","-0.980284","0.9954","0.0408129","-0.0866789"
"404","4530387450520","8.99199","-0.59494","0.0478973","0","0","0","0.0557475","-0.982529","0.177566","-0.0779175","-0.181581","-0.980284","0.9954","0.0408129","-0.0866789"
"404","4530403716389","9.60506","-0.307571","-0.143692","0","0","0","0.0469209","-0.989288","0.138232","-0.0765672","-0.141539","-0.986967","0.99596","0.0357254","-0.0823881"
"404","4530420562092","9.68169","-0.269257","-0.00958252","0","0","0","0.0401724","-0.993839","0.103292","-0.0749416","-0.106081","-0.991529","0.996378","0.0320913","-0.0787415"
"404","4530437346760","9.41347","-0.537476","0.277786","0","0","0","0.0453092","-0.970965","0.234892","-0.065413","-0.237512","-0.96918","0.996829","0.0285478","-0.0742752"
"404","4530454100910","9.29852","-0.805695","0.201157","0","0","0","0.0371016","-0.978634","0.202233","-0.0626288","-0.204251","-0.976913","0.997347","0.0235795","-0.0688688"
"404","4530470855061","9.56674","-0.844009","-0.0670624","0","0","0","0.0339847","-0.964267","0.262744","-0.0576701","-0.26435","-0.962701","0.997757","0.0175646","-0.0645933"
"404","4530487639729","10.084","-0.556625","0.201157","0","0","0","0.0276183","-0.965786","0.257864","-0.0561562","-0.259055","-0.964229","0.99804","0.0121497","-0.0613895"
"404","4530504485432","10.1223","-0.250092","0.56517","0","0","0","0.0232269","-0.964526","0.262964","-0.0520018","-0.263844","-0.963163","0.998377","0.00869672","-0.0562854"
"404","4530521270100","10.2756","-0.384201","1.04413","0","0","0","0.0188159","-0.969375","0.244862","-0.0460491","-0.245486","-0.968306","0.998762","0.00694388","-0.0492579"
"404","4530538054768","10.5055","-0.805695","0.69928","0","0","0","0.0139408","-0.967696","0.251735","-0.0383047","-0.252092","-0.966945","0.999169","0.00383734","-0.0405817"
"404","4530554808918","11.5784","-0.958954","-0.162857","0","0","0","0.00824475","-0.963893","0.266164","-0.0346155","-0.266289","-0.963272","0.999367","-0.00127145","-0.0355611"
"404","4530571593586","12.3064","-0.59494","-0.584335","0","0","0","0.00377168","-0.960585","0.277962","-0.0351968","-0.27792","-0.959959","0.999373","-0.00616274","-0.0348577"
"404","4530588408772","12.6704","-0.460846","-0.507706","0","0","0","0.00406179","-0.93923","0.343265","-0.0368115","-0.343176","-0.93855","0.999314","-0.0088239","-0.0359684"
"404","4530605162922","12.498","-0.59494","0.373581","0","0","0","0.00179889","-0.940518","0.339739","-0.0368594","-0.339571","-0.939858","0.999319","-0.0108319","-0.0352778"
"404","4530621978108","12.4213","-0.403366","1.10159","0","0","0","-0.00247233","-0.944154","0.329494","-0.0328298","-0.329241","-0.943675","0.999458","-0.0131503","-0.0301824"
"404","4530638762776","11.9807","-0.345886","1.5614","0","0","0","-0.00892826","-0.973256","0.229551","-0.0239114","-0.229287","-0.973065","0.999674","-0.0141767","-0.0212248"
"404","4530655516926","12.1531","-1.34212","0.450211","0","0","0","-0.0115513","-0.960001","0.279759","-0.016359","-0.279559","-0.959989","0.999799","-0.0156657","-0.0124754"
"404","4530672362629","12.5363","-1.78276","-0.852554","0","0","0","-0.0182823","-0.957128","0.289089","-0.016411","-0.288811","-0.957245","0.999698","-0.0222449","-0.0104273"
"404","4530689116780","12.4788","-1.85939","-3.24733","0","0","0","-0.0233487","-0.95148","0.306822","-0.0255167","-0.306239","-0.951613","0.999402","-0.030048","-0.0171284"
"404","4530705901448","11.7891","-1.87856","-4.97159","0","0","0","-0.0205479","-0.915064","0.402786","-0.0471662","-0.401535","-0.914628","0.998676","-0.0377916","-0.0349094"
"404","4530722655598","10.6779","-1.3038","-5.58464","0","0","0","-0.019499","-0.929124","0.369254","-0.0719472","-0.367063","-0.927409","0.997218","-0.0446504","-0.0596905"
"404","4530739470784","9.04945","-0.115982","-4.70337","0","0","0","-0.0176551","-0.944849","0.327031","-0.0949371","-0.32402","-0.941275","0.995327","-0.0476657","-0.0839806"
"404","4530756255451","7.59343","1.70406","-3.66882","0","0","0","-0.00916907","-0.948371","0.317032","-0.112111","-0.314071","-0.942757","0.993653","-0.044187","-0.103443"
"404","4530773009602","7.32521","3.90726","-1.67636","0","0","0","0.00517569","-0.954949","0.296726","-0.120698","-0.295157","-0.947794","0.992676","-0.0309087","-0.116788"
"404","4530789794270","8.12987","4.99927","0.296951","0","0","0","0.0175428","-0.978659","0.204742","-0.117573","-0.205372","-0.971596","0.992909","-0.00702753","-0.118667"
"404","4530806578938","10.1415","2.27879","0.124527","0","0","0","0.0401658","-0.976389","0.212254","-0.105063","-0.215375","-0.970863","0.993654","0.0166953","-0.111233"
"404","4530823363606","10.7354","-0.824844","-1.06329","0","0","0","0.0381062","-0.990851","0.129471","-0.101926","-0.132743","-0.985896","0.994062","0.0243723","-0.106052"
"404","4530840209309","10.3331","-3.12384","-2.05952","0","0","0","0.0321248","-0.987452","0.154615","-0.103567","-0.157151","-0.982129","0.994103","0.0155376","-0.107316"
"404","4530856932942","9.77748","-3.73691","-2.05952","0","0","0","0.0274325","-0.963074","0.267835","-0.10984","-0.269218","-0.956795","0.993571","-0.00317179","-0.11317"
"404","4530873717610","9.45178","-2.74068","-1.73383","0","0","0","0.01182","-0.9596","0.281118","-0.119454","-0.28048","-0.952398","0.992769","-0.0223235","-0.117944"
"404","4530890532795","9.29852","-0.422516","-1.38898","0","0","0","0.00576677","-0.950906","0.309425","-0.125346","-0.307677","-0.943199","0.992096","-0.0333458","-0.120966"
"404","4530907317463","8.91536","1.99142","-0.871704","0","0","0","0.00599105","-0.956361","0.292128","-0.125654","-0.290537","-0.948577","0.992056","-0.031024","-0.121911"
"404","4530924102131","8.47472","3.29419","-0.392746","0","0","0","0.0196678","-0.954657","0.297059","-0.119686","-0.297228","-0.947275","0.992617","-0.016923","-0.120105"
"404","4530940856282","8.05322","3.19839","0.181992","0","0","0","0.0390245","-0.94928","0.312","-0.109635","-0.314421","-0.942931","0.993205","0.00259131","-0.116344"
"404","4530957640950","8.4364","2.33627","0.162842","0","0","0","0.0529101","-0.949323","0.309818","-0.0986274","-0.313703","-0.944385","0.993717","0.019411","-0.110227"
"404","4530974456135","8.83871","1.74237","-0.373596","0","0","0","0.0565446","-0.965992","0.252315","-0.0933919","-0.256729","-0.961961","0.994022","0.0308295","-0.104732"
"404","4530991240803","9.33684","1.47415","-0.948334","0","0","0","0.06102","-0.972539","0.224597","-0.0908898","-0.229496","-0.969057","0.99399","0.0387182","-0.102398"
"404","4531007994953","9.14525","1.89563","-1.04413","0","0","0","0.0713374","-0.961857","0.264088","-0.0868319","-0.269746","-0.959009","0.993666","0.0454819","-0.102763"
"404","4531024779621","8.5705","2.33627","-0.469391","0","0","0","0.0789004","-0.964915","0.250428","-0.0856122","-0.256841","-0.962654","0.9932","0.0545141","-0.102873"
"404","4531041564289","8.55135","2.20216","0.277786","0","0","0","0.0902393","-0.957768","0.273016","-0.0775883","-0.280062","-0.956841","0.992893","0.0651618","-0.0995842"
"404","4531058379475","8.85788","1.68489","0.775909","0","0","0","0.0864111","-0.986532","0.138878","-0.0809111","-0.145888","-0.985987","0.992968","0.0739635","-0.0924277"
"404","4531075164143","8.89619","1.2251","0.775909","0","0","0","0.0949469","-0.974016","0.205617","-0.0645702","-0.212141","-0.975103","0.993386","0.0793062","-0.0830346"
"404","4531091948811","8.74294","0.861084","0.52684","0","0","0","0.0946614","-0.97651","0.193563","-0.0572245","-0.199452","-0.978235","0.993863","0.0815246","-0.0747608"
"404","4531108702961","9.01114","0.956879","0.50769","0","0","0","0.0923439","-0.98317","0.157639","-0.0540682","-0.163033","-0.985138","0.994258","0.0824482","-0.0682133"
"404","4531125457112","9.33684","1.20593","0.69928","0","0","0","0.096294","-0.966329","0.238611","-0.0394832","-0.243245","-0.969161","0.99457","0.0839032","-0.0615768"
"404","4531142272297","9.43263","1.56995","0.814224","0","0","0","0.0969947","-0.96889","0.227693","-0.0327201","-0.231752","-0.972224","0.994747","0.0868505","-0.0541808"
"404","4531159056965","9.54758","1.819","1.10159","0","0","0","0.0964834","-0.988312","0.118026","-0.0348601","-0.121862","-0.991935","0.994724","0.0915908","-0.0462103"
"404","4531175902668","9.62421","1.60826","1.27402","0","0","0","0.100999","-0.986474","0.129106","-0.0239662","-0.132144","-0.990941","0.994598","0.0969902","-0.0369885"
"404","4531192626301","10.2181","0.861084","0.69928","0","0","0","0.102492","-0.989277","0.10405","-0.0173662","-0.106364","-0.994176","0.994582","0.100088","-0.0280814"
"404","4531209410969","11.2143","-0.192627","-0.450226","0","0","0","0.0989778","-0.992542","0.0711659","-0.0161029","-0.0731053","-0.997194","0.994959","0.0975541","-0.0232186"
"404","4531226195637","12.7662","0.133072","-1.00581","0","0","0","0.0930711","-0.979867","0.176629","-0.00993653","-0.178304","-0.983925","0.99561","0.0898199","-0.0263314"
"404","4531243010823","13.3026","1.2251","-0.373596","0","0","0","0.0888001","-0.985331","0.145734","-0.0166122","-0.147756","-0.988884","0.995911","0.0853921","-0.0294893"
"404","4531259795491","13.0152","1.43584","0.392746","0","0","0","0.0905305","-0.971504","0.219055","-0.00909371","-0.220755","-0.975287","0.995852","0.0863012","-0.0288196"
"404","4531276549641","12.1531","0.899399","1.25487","0","0","0","0.0902855","-0.979736","0.178792","-0.00768123","-0.180204","-0.983599","0.995886","0.0874314","-0.0237954"
"404","4531293334309","10.9845","0.61203","1.88708","0","0","0","0.0872072","-0.967757","0.236309","0.00600918","-0.236697","-0.971565","0.996172","0.0861475","-0.0148263"
"404","4531310118977","11.0611","1.32088","1.90625","0","0","0","0.0842328","-0.979496","0.18301","0.0121874","-0.182636","-0.983105","0.996372","0.0850401","-0.00344641"
"404","4531326934162","13.3984","2.31711","0.431061","0","0","0","0.0851298","-0.976022","0.200333","0.0231025","-0.199075","-0.979712","0.996102","0.0880308","0.00560134"
"404","4531343718830","13.5708","3.67735","-3.61134","0","0","0","0.0925582","-0.973423","0.209476","0.0230174","-0.208231","-0.977809","0.995441","0.0953259","0.00313213"
"404","4531360472981","12.2106","3.71567","-6.04445","0","0","0","0.110503","-0.982044","0.152899","-0.00257313","-0.154123","-0.988048","0.993872","0.108789","-0.019558"
"404","4531377257649","10.3522","1.14845","-4.60757","0","0","0","0.123317","-0.983846","0.129768","-0.0308789","-0.134507","-0.990431","0.991887","0.11813","-0.0469671"
"404","4531394042317","8.34061","-1.22717","-3.74545","0","0","0","0.123293","-0.983842","0.129822","-0.0515997","-0.136999","-0.989226","0.991028","0.115266","-0.067657"
"404","4531410826985","7.70837","-2.30003","-2.61511","0","0","0","0.116061","-0.97634","0.182455","-0.062723","-0.190534","-0.979675","0.99126","0.102258","-0.0833525"
"404","4531427672688","7.47849","-1.7636","-1.81047","0","0","0","0.102177","-0.977966","0.182049","-0.074952","-0.190056","-0.978908","0.991939","0.0863765","-0.0927198"
"404","4531444396321","8.55135","-0.479996","-1.63805","0","0","0","0.0934376","-0.975366","0.199829","-0.0812751","-0.20751","-0.974851","0.992302","0.0748466","-0.0986621"
"404","4531461180989","10.1223","1.07182","-1.79131","0","0","0","0.0917604","-0.970769","0.221782","-0.0842408","-0.229491","-0.969658","0.992211","0.0702932","-0.102837"
"404","4531477996174","10.2756","2.5087","-2.07867","0","0","0","0.0940928","-0.97574","0.197681","-0.0898135","-0.206072","-0.974406","0.991504","0.0739302","-0.107024"
"404","4531494719807","9.52841","3.16008","-2.09784","0","0","0","0.0968946","-0.989061","0.111223","-0.101736","-0.121006","-0.987425","0.990081","0.0843607","-0.112348"
"404","4531512145344","8.87703","2.60449","-1.84879","0","0","0","0.106446","-0.990286","0.0894642","-0.107542","-0.100914","-0.989066","0.988486","0.0956607","-0.117239"
"404","4531528319660","8.05322","1.30173","-0.69928","0","0","0","0.111267","-0.990592","0.0796749","-0.108836","-0.0918368","-0.989809","0.987813","0.101461","-0.11803"
"404","4531545134846","8.45555","0.899399","-0.660965","0","0","0","0.108526","-0.993427","0.0364131","-0.112331","-0.0486499","-0.992479","0.987727","0.10362","-0.116873"
"404","4531561858479","9.35599","0.592865","-0.948334","0","0","0","0.11243","-0.990729","0.0762556","-0.106185","-0.0882818","-0.99042","0.98797","0.103256","-0.115126"
"404","4531578643147","9.87326","0.305496","-1.08244","0","0","0","0.103846","-0.994371","0.0210532","-0.111674","-0.0326911","-0.993207","0.988304","0.10079","-0.11444"
"404","4531595458332","9.87326","-0.0968323","-0.890869","0","0","0","0.0914222","-0.994673","-0.0476233","-0.1179","0.0366756","-0.992348","0.988808","0.0963374","-0.113919"
"404","4531612243000","9.58589","-0.78653","-0.833389","0","0","0","0.0867162","-0.995715","-0.0321345","-0.115238","0.022014","-0.993094","0.989546","0.0898204","-0.112835"
"404","4531629027668","9.31767","-1.61034","-0.75676","0","0","0","0.0767164","-0.996616","-0.0295241","-0.113071","0.020724","-0.993371","0.990621","0.0795462","-0.111099"
"404","4531645781819","8.76208","-1.97435","-0.124527","0","0","0","0.063982","-0.997798","-0.0174854","-0.110053","0.0103596","-0.993872","0.991864","0.0655142","-0.109148"
"404","4531662597004","8.8004","-1.66782","0.0862122","0","0","0","0.0546647","-0.998085","0.0289451","-0.102476","-0.0344432","-0.994139","0.993232","0.0513781","-0.104162"
"404","4531679412190","9.04945","-0.997269","0.201157","0","0","0","0.0434881","-0.99852","0.0326549","-0.0970989","-0.0367554","-0.994596","0.994324","0.0400823","-0.0985537"
"404","4531696166340","9.26021","-0.441681","-0.0670624","0","0","0","0.042061","-0.994407","0.0968795","-0.0891428","-0.100314","-0.990954","0.99513","0.0330444","-0.0928635"
"404","4531712951008","9.62421","-0.250092","-0.277802","0","0","0","0.0340673","-0.99788","0.055455","-0.0870419","-0.0582388","-0.994501","0.995622","0.029053","-0.0888414"
"404","4531729735676","9.89243","-0.192627","-0.0670624","0","0","0","0.0358364","-0.992659","0.115512","-0.0815657","-0.118106","-0.989645","0.996023","0.0260435","-0.0851995"
"404","4531746520344","9.72","-0.0393524","0.431061","0","0","0","0.0275417","-0.998511","0.0470772","-0.0786996","-0.0491148","-0.995688","0.996518","0.023718","-0.0799352"
"404","4531763305012","9.58589","-0.0010376","0.6418","0","0","0","0.0261733","-0.99821","0.0537754","-0.0714539","-0.0555244","-0.995897","0.9971","0.0222235","-0.0727792"
"404","4531780089680","9.56674","-0.288422","1.12076","0","0","0","0.0290452","-0.99132","0.128221","-0.0611881","-0.129798","-0.989651","0.997704","0.020899","-0.064427"
"404","4531796904866","10.0074","-0.499161","0.71843","0","0","0","0.0202661","-0.998788","0.0448453","-0.0541788","-0.0458857","-0.997476","0.998326","0.0177853","-0.055043"
"404","4531813659016","10.7162","-0.422516","0.52684","0","0","0","0.0173799","-0.996958","0.0759779","-0.0468009","-0.0767173","-0.995954","0.998753","0.0137538","-0.0479919"
"404","4531830443684","10.9653","0.0181122","0.162842","0","0","0","0.016182","-0.992047","0.124827","-0.0409347","-0.125396","-0.991262","0.999031","0.0109309","-0.0426383"
"404","4531847258869","10.6779","0.573715","-0.124527","0","0","0","0.0172044","-0.986959","0.160052","-0.0372332","-0.160597","-0.986317","0.999159","0.0110098","-0.0395106"
"404","4531864043537","10.927","0.49707","-0.354431","0","0","0","0.0180848","-0.993034","0.116435","-0.0363406","-0.11703","-0.992463","0.999176","0.0137172","-0.0382039"
"404","4531880828205","11.4442","-0.0010376","-0.316116","0","0","0","0.0194697","-0.99259","0.119945","-0.0356355","-0.120581","-0.992064","0.999175","0.0150409","-0.0377191"
"404","4531897582356","12.383","-0.384201","-0.143692","0","0","0","0.0178767","-0.9926","0.120103","-0.0350825","-0.120671","-0.992072","0.999225","0.0135214","-0.0369801"
"404","4531914367024","12.5171","-0.192627","0.354416","0","0","0","0.0132629","-0.99692","0.0772972","-0.0334432","-0.0777031","-0.996415","0.999353","0.0106303","-0.0343708"
"404","4531931182209","12.383","-0.365051","0.469376","0","0","0","0.0133036","-0.988991","0.147379","-0.0279302","-0.147702","-0.988637","0.999521","0.00903611","-0.0295876"
"404","4531947966877","12.4788","-0.997269","0.354416","0","0","0","0.00879767","-0.992833","0.119189","-0.0247515","-0.119374","-0.992541","0.999655","0.00578193","-0.0256243"
"404","4531964721028","12.5746","-1.72528","-0.0670624","0","0","0","0.00170284","-0.99423","0.107254","-0.0222591","-0.107266","-0.993981","0.999751","-0.000694799","-0.0223133"
"404","4531981505696","12.1723","-2.39583","-1.58057","0","0","0","-0.00626257","-0.984525","0.175132","-0.0243799","-0.174933","-0.984278","0.999683","-0.0104338","-0.0229071"
"404","4531998290364","11.4442","-2.89394","-3.32397","0","0","0","-0.0190638","-0.992927","0.117182","-0.0341483","-0.116488","-0.992605","0.999235","-0.0229244","-0.0316861"
"404","4532015075032","10.084","-2.56825","-4.64589","0","0","0","-0.0285481","-0.988066","0.15136","-0.0536925","-0.149687","-0.987275","0.998149","-0.0363116","-0.0487785"
"404","4532031829182","8.37892","-1.16969","-4.74168","0","0","0","-0.0277249","-0.969318","0.24424","-0.0801734","-0.24139","-0.967111","0.996395","-0.0463946","-0.0710211"
"404","4532048613850","7.44017","1.07182","-3.82208","0","0","0","-0.0305396","-0.982621","0.183094","-0.0993066","-0.179291","-0.978771","0.994588","-0.0480738","-0.0921052"
"404","4532065398518","7.32521","4.55864","-2.04036","0","0","0","-0.0305396","-0.982621","0.183094","-0.0993066","-0.179291","-0.978771","0.994588","-0.0480738","-0.0921052"
"404","4532082763020","8.28313","5.11423","-1.13992","0","0","0","-0.00025087","-0.996195","0.0871521","-0.113467","-0.0865609","-0.989764","0.993542","-0.0101372","-0.113013"
"404","4532098998371","9.73917","3.65819","-1.42729","0","0","0","0.0306406","-0.992447","0.118784","-0.110962","-0.121483","-0.986372","0.993352","0.0170426","-0.113846"
"404","4532115813557","10.7354","1.07182","-2.40437","0","0","0","0.0383265","-0.998374","0.0421952","-0.115345","-0.046364","-0.992243","0.992586","0.0331622","-0.116935"
"404","4532132598225","10.6013","-1.18886","-2.63428","0","0","0","0.0428406","-0.996614","0.070174","-0.12085","-0.074892","-0.989842","0.991746","0.0339249","-0.123649"
"404","4532149321858","9.94991","-1.89771","-1.90625","0","0","0","0.0382183","-0.993613","0.10617","-0.126817","-0.110211","-0.985784","0.99119","0.0242109","-0.130219"
"404","4532166167561","9.37515","-1.18886","-1.21655","0","0","0","0.0276472","-0.993809","0.107605","-0.130453","-0.110313","-0.985299","0.991069","0.0132034","-0.132695"
"404","4532182891194","9.68169","-0.192627","-0.890869","0","0","0","0.0262761","-0.989193","0.144242","-0.129412","-0.146443","-0.980717","0.991243","0.00710281","-0.131862"
"404","4532199736897","9.89243","0.918564","-0.775909","0","0","0","0.0283838","-0.985755","0.165778","-0.126439","-0.168053","-0.977636","0.991568","0.00678812","-0.129408"
"404","4532216521565","9.66252","1.09099","-0.507706","0","0","0","0.0304844","-0.988624","0.147285","-0.123514","-0.14995","-0.980948","0.991874","0.0117118","-0.12668"
"404","4532233306233","9.52841","0.822769","-0.201172","0","0","0","0.0370188","-0.985921","0.163062","-0.118103","-0.166347","-0.978969","0.992311","0.016982","-0.122598"
"404","4532250060383","9.35599","0.535385","-0.335281","0","0","0","0.0374333","-0.988777","0.14463","-0.113673","-0.148005","-0.982432","0.992813","0.0203352","-0.117937"
"404","4532266875569","8.93451","0.63118","-0.335281","0","0","0","0.0464104","-0.975555","0.2148","-0.106302","-0.218634","-0.97","0.99325","0.0221845","-0.11385"
"404","4532283660237","8.07239","1.30173","-0.277802","0","0","0","0.0493109","-0.974047","0.22091","-0.101858","-0.22493","-0.969036","0.993576","0.0252826","-0.110306"
"404","4532300444905","7.63174","1.99142","-0.0670624","0","0","0","0.0513008","-0.982229","0.180539","-0.0989228","-0.184885","-0.977769","0.993772","0.0323009","-0.10665"
"404","4532317229573","7.68922","2.31711","0.239471","0","0","0","0.0521061","-0.994573","0.0900504","-0.0974392","-0.094806","-0.990716","0.993877","0.0428478","-0.10185"
"404","4532334014241","8.18733","1.91479","0.431061","0","0","0","0.0640778","-0.992211","0.106829","-0.0889797","-0.112303","-0.989682","0.99397","0.053911","-0.0954827"
"404","4532350798909","8.99199","1.30173","0.373581","0","0","0","0.0720617","-0.989329","0.126628","-0.0797995","-0.13227","-0.987996","0.994203","0.0610919","-0.0884795"
"404","4532367553059","8.76208","1.2251","0.335266","0","0","0","0.0785126","-0.982764","0.167361","-0.0697334","-0.172882","-0.982471","0.994471","0.0654657","-0.0821049"
"404","4532384337727","8.58966","1.32088","0.411896","0","0","0","0.0759289","-0.993349","0.0865614","-0.0695037","-0.0918735","-0.993342","0.994688","0.0694071","-0.0760173"
"404","4532401152912","8.70461","1.34004","0.66095","0","0","0","0.0802037","-0.992237","0.0950442","-0.0619968","-0.100133","-0.993041","0.994849","0.0737531","-0.0695465"
"404","4532417937580","9.01114","1.26341","1.02496","0","0","0","0.0858005","-0.986404","0.140161","-0.0498602","-0.144754","-0.988211","0.995064","0.0778005","-0.0616023"
"404","4532434722248","9.50926","1.14845","1.08244","0","0","0","0.0875914","-0.986117","0.141071","-0.0401096","-0.144991","-0.98862","0.995349","0.0809363","-0.0522528"
"404","4532451476399","9.66252","1.07182","1.13991","0","0","0","0.0883837","-0.98631","0.139212","-0.030696","-0.14239","-0.989335","0.995613","0.0831678","-0.0428607"
"404","4532468291584","10.4863","0.726974","0.814224","0","0","0","0.0849631","-0.996285","0.0140644","-0.0326712","-0.0168935","-0.999323","0.995848","0.0844461","-0.0339851"
"404","4532485045735","11.5209","-0.78653","-0.833389","0","0","0","0.0838197","-0.994342","0.0652486","-0.0219466","-0.0673052","-0.997491","0.996239","0.0821774","-0.0274639"
"404","4532501799885","12.5554","-0.997269","-1.2932","0","0","0","0.0850355","-0.98813","0.127938","-0.0166243","-0.129792","-0.991402","0.996239","0.0821774","-0.0274639"
"404","4532519133869","12.9386","-0.0202026","-0.871704","0","0","0","0.0659606","-0.989273","0.130339","-0.0278833","-0.1324","-0.990804","0.997433","0.0617197","-0.0363174"
"404","4532535918537","12.2681","0.880249","0.814224","0","0","0","0.0643703","-0.9819","0.178126","-0.0266656","-0.180125","-0.983282","0.99757","0.0585443","-0.0377776"
"404","4532552703205","11.9998","0.880249","1.94456","0","0","0","0.062708","-0.98579","0.155839","-0.0125097","-0.15691","-0.987534","0.997954","0.0599767","-0.0221714"
"404","4532568938557","11.9998","0.995193","1.9254","0","0","0","0.062708","-0.98579","0.155839","-0.0125097","-0.15691","-0.987534","0.997954","0.0599767","-0.0221714"
"404","4532585723225","11.655","1.26341","1.88708","0","0","0","0.0619018","-0.992472","0.105678","-0.00379329","-0.106115","-0.994347","0.998075","0.061151","-0.0103334"
"404","4532602507893","11.7891","1.97226","1.82961","0","0","0","0.0619847","-0.989051","0.133927","-0.00203054","-0.134309","-0.990937","0.998075","0.061151","-0.0103334"
"404","4532619811360","12.1339","2.22133","1.54224","0","0","0","0.0702151","-0.990823","0.1155","0.0174713","-0.114546","-0.993264","0.997379","0.07176","0.00926806"
"404","4532636077229","13.3601","3.00681","-4.74168","0","0","0","0.0801356","-0.996655","-0.0160335","0.0023537","0.0162744","-0.999865","0.996781","0.0800871","0.00364999"
"404","4532652861897","12.6704","3.00681","-7.46216","0","0","0","0.091034","-0.995291","0.0333067","-0.0217536","-0.035425","-0.999135","0.99561","0.0902308","-0.024876"
"404","4532670165364","11.0994","2.35542","-6.31267","0","0","0","0.10332","-0.992058","0.0717383","-0.0534637","-0.0775592","-0.995553","0.99321","0.0990256","-0.0610526"
"404","4532686431233","8.2065","1.28256","-4.20525","0","0","0","0.11278","-0.988751","0.0982424","-0.0761526","-0.107184","-0.991318","0.990697","0.104319","-0.0873841"
"404","4532703215901","6.90373","-0.403366","-3.07491","0","0","0","0.103099","-0.994437","-0.0215924","-0.1059","0.0106106","-0.99432","0.989018","0.1048","-0.104217"
"404","4532720519367","6.42477","-1.82108","-1.8871","0","0","0","0.10442","-0.992695","0.0604399","-0.108711","-0.0718008","-0.991477","0.988574","0.0969591","-0.115414"
"404","4532737304035","7.72754","-2.20424","-1.1974","0","0","0","0.0913079","-0.993648","0.0657736","-0.11429","-0.0760695","-0.990531","0.989242","0.082926","-0.12051"
"404","4532753569905","9.94991","-0.863159","-1.02498","0","0","0","0.0824206","-0.989995","0.114526","-0.112553","-0.123429","-0.98595","0.990222","0.0683724","-0.1216"
"404","4532770354573","11.0228","2.14468","-2.13615","0","0","0","0.0791865","-0.990195","0.115084","-0.112933","-0.123614","-0.985883","0.990442","0.0650719","-0.121614"
"404","4532787139241","9.62421","2.94934","-2.32774","0","0","0","0.0849621","-0.992983","0.0822513","-0.119945","-0.0921424","-0.988495","0.989138","0.074119","-0.126932"
"404","4532803923909","8.45555","2.29796","-1.82962","0","0","0","0.0923878","-0.994713","0.0448321","-0.128163","-0.0565297","-0.990141","0.98744","0.0857311","-0.132708"
"404","4532820708576","8.16818","1.01434","-1.04413","0","0","0","0.100403","-0.993679","0.0502103","-0.130203","-0.0631537","-0.989474","0.986391","0.0928088","-0.135721"
"404","4532837493244","8.30229","0.0947571","-0.507706","0","0","0","0.114794","-0.979604","0.164918","-0.116626","-0.178157","-0.977066","0.98652","0.0929275","-0.134699"
"404","4532854277912","8.78125","-0.250092","-0.316116","0","0","0","0.104627","-0.987044","0.121645","-0.118424","-0.133811","-0.983906","0.987436","0.0885378","-0.13089"
"404","4532871062580","9.52841","-0.135147","-1.08244","0","0","0","0.0918819","-0.993499","0.0672179","-0.120968","-0.07814","-0.989576","0.988395","0.0827929","-0.127361"
"404","4532887847248","9.98822","0.305496","-1.36983","0","0","0","0.0831038","-0.995931","0.0348578","-0.123825","-0.0450274","-0.991282","0.988818","0.078063","-0.127064"
"404","4532905120198","9.47095","0.343811","-0.507706","0","0","0","0.0817439","-0.995669","0.0442833","-0.123075","-0.0541764","-0.990917","0.989025","0.0755513","-0.126971"
"404","4532921416584","9.27936","0.0947571","-0.239487","0","0","0","0.0756847","-0.997125","-0.00377999","-0.126891","-0.00587123","-0.991899","0.989025","0.0755513","-0.126971"
"404","4532938231770","8.51303","-0.365051","0.143677","0","0","0","0.0730001","-0.997056","0.0234443","-0.116365","-0.0318615","-0.992695","0.99052","0.0697387","-0.118349"
"404","4532954985920","7.99576","-0.748215","0.469376","0","0","0","0.0642321","-0.997935","0.000238166","-0.111618","-0.00742148","-0.993723","0.991673","0.0638024","-0.111865"
"404","4532971770588","8.1107","-0.767365","0.411896","0","0","0","0.0653814","-0.994463","0.0822762","-0.0991389","-0.0885183","-0.991129","0.992923","0.0566446","-0.104377"
"404","4532988555256","8.81956","-0.59494","-0.0287476","0","0","0","0.0559215","-0.99659","0.0606777","-0.0944234","-0.0657792","-0.993357","0.99396","0.0498206","-0.0977798"
"404","4533005309407","9.50926","-0.269257","-0.431061","0","0","0","0.0428901","-0.998942","-0.0166235","-0.0941312","0.0125244","-0.995481","0.994635","0.044261","-0.0934944"
"404","4533022155110","9.94991","-0.0585175","-0.354431","0","0","0","0.0428901","-0.998942","-0.0166235","-0.0941312","0.0125244","-0.995481","0.994635","0.044261","-0.0934944"
"404","4533038909260","9.96906","-0.154312","-0.0287476","0","0","0","0.0459744","-0.994613","0.0929004","-0.0829385","-0.0964782","-0.991874","0.995494","0.0378958","-0.0869273"
"404","4533055693928","9.43263","-1.18886","0.296951","0","0","0","0.0428415","-0.992065","0.118204","-0.0771418","-0.121244","-0.989621","0.996099","0.0332784","-0.0817239"
"404","4533072478596","9.72","-1.57202","0.296951","0","0","0","0.0311546","-0.994837","0.0965854","-0.0732699","-0.0986455","-0.992422","0.996825","0.0238417","-0.0759648"
"404","4533089263264","9.96906","-1.22717","0.450211","0","0","0","0.0233523","-0.989527","0.142444","-0.0672288","-0.143715","-0.987333","0.997464","0.0134802","-0.0698808"
"404","4533106047932","10.3905","-0.441681","0.392746","0","0","0","0.0186544","-0.981028","0.192966","-0.060936","-0.193757","-0.979155","0.997967","0.00650695","-0.0633944"
"404","4533122832600","10.8312","0.477921","-0.0670624","0","0","0","0.0172927","-0.975899","0.217538","-0.0554898","-0.218172","-0.974331","0.998309","0.00477769","-0.0579252"
"404","4533139617268","11.0802","1.05267","-0.411911","0","0","0","0.0154165","-0.990741","0.134886","-0.0537334","-0.135528","-0.989315","0.998436","0.00800391","-0.0553253"
"404","4533156401936","11.6167","0.976028","-0.75676","0","0","0","0.0227944","-0.984635","0.173132","-0.0513455","-0.174102","-0.983388","0.998421","0.0135262","-0.0545251"
"404","4533173186604","12.0573","0.516235","-0.546021","0","0","0","0.0269728","-0.984533","0.17311","-0.0513392","-0.174309","-0.983352","0.998317","0.0176365","-0.0552467"
"404","4533189971272","11.8849","0.0372772","0.220322","0","0","0","0.0218986","-0.997189","0.0716579","-0.0519567","-0.0727133","-0.995999","0.998409","0.0180879","-0.053403"
"404","4533206755940","12.3638","0.248016","0.986649","0","0","0","0.0212162","-0.996453","0.0814367","-0.0463244","-0.0823473","-0.995526","0.998701","0.0173487","-0.0479072"
"404","4533223571125","12.2872","0.133072","1.25487","0","0","0","0.0235927","-0.987103","0.158338","-0.0354984","-0.159109","-0.986623","0.999091","0.0176563","-0.0387944"
"404","4533240874592","12.3064","-0.978119","0.239471","0","0","0","0.0206835","-0.987647","0.155322","-0.0281348","-0.155869","-0.987377","0.99939","0.0160525","-0.0310111"
"404","4533257140461","13.0152","-2.12761","-0.277802","0","0","0","0.0206835","-0.987647","0.155322","-0.0281348","-0.155869","-0.987377","0.99939","0.0160525","-0.0310111"
"404","4533273925129","13.2068","-2.62573","-3.36229","0","0","0","0.012545","-0.988644","0.14975","-0.0266993","-0.15004","-0.988319","0.999565","0.00840023","-0.0282784"
"404","4533290679280","12.0573","-2.66405","-6.48509","0","0","0","0.000555521","-0.987824","0.155572","-0.0304983","-0.155516","-0.987362","0.999535","-0.00419619","-0.0302134"
"404","4533307463948","10.5055","-2.37666","-6.0636","0","0","0","-0.0123202","-0.977392","0.211076","-0.0846852","-0.209313","-0.974175","0.996332","-0.029877","-0.0801918"
"404","4533324279133","8.07239","-0.441681","-4.6842","0","0","0","-0.0123202","-0.977392","0.211076","-0.0846852","-0.209313","-0.974175","0.996332","-0.029877","-0.0801918"
"404","4533341063801","7.21027","2.02974","-2.76837","0","0","0","-0.0115111","-0.978777","0.204605","-0.129115","-0.201451","-0.970952","0.991563","-0.0375943","-0.124055"
"404","4533357878987","7.05699","4.53947","-0.182007","0","0","0","0.00988012","-0.971166","0.238198","-0.132476","-0.237381","-0.962341","0.991137","-0.0220475","-0.131002"
"404","4533374633137","9.0303","4.57779","0.373581","0","0","0","0.0268803","-0.983093","0.181122","-0.122926","-0.183063","-0.975386","0.992052","0.00395404","-0.125769"
"404","4533391448323","10.7545","2.70029","-0.833389","0","0","0","0.0466271","-0.984518","0.168966","-0.112383","-0.173246","-0.978446","0.99257","0.0266332","-0.118721"
"404","4533408202473","11.3484","0.113907","-2.04036","0","0","0","0.0572065","-0.982651","0.176421","-0.109338","-0.181814","-0.977235","0.992357","0.0366146","-0.117842"
"404","4533425017659","10.8503","-1.78276","-2.40437","0","0","0","0.0558232","-0.979351","0.194306","-0.113273","-0.199565","-0.973316","0.991994","0.0323241","-0.122074"
"404","4533441802326","9.54758","-2.03181","-2.02121","0","0","0","0.0415082","-0.985312","0.165643","-0.122327","-0.16955","-0.9779","0.991621","0.0203283","-0.127568"
"404","4533458556477","8.68546","-1.22717","-1.50394","0","0","0","0.0412672","-0.968784","0.244449","-0.124813","-0.247739","-0.960753","0.991322","0.00913724","-0.13114"
"404","4533475371662","8.66629","0.707825","-0.718445","0","0","0","0.0406098","-0.962925","0.266694","-0.125784","-0.269717","-0.954689","0.991226","0.00522394","-0.132074"
"404","4533492095295","8.55135","1.4933","-0.316116","0","0","0","0.0409183","-0.970147","0.239041","-0.122797","-0.24231","-0.962396","0.991588","0.0100261","-0.129046"
"404","4533508971516","8.66629","1.62741","-0.0478973","0","0","0","0.0428768","-0.979191","0.198358","-0.118749","-0.202128","-0.972133","0.991998","0.0181272","-0.124944"
"404","4533525725666","9.1261","1.1293","0.0862122","0","0","0","0.0576857","-0.960229","0.273191","-0.107122","-0.278021","-0.954583","0.992571","0.0258011","-0.118899"
"404","4533542510334","9.58589","0.669495","-0.316116","0","0","0","0.0626681","-0.953157","0.295911","-0.0989853","-0.300968","-0.948483","0.993114","0.0301487","-0.11321"
"404","4533559325520","9.37515","0.976028","-0.718445","0","0","0","0.0610999","-0.961176","0.269088","-0.0964196","-0.274014","-0.95688","0.993464","0.03252","-0.109418"
"404","4533576079670","8.81956","1.97226","-1.10161","0","0","0","0.0630158","-0.967392","0.245321","-0.0954843","-0.250526","-0.96339","0.993434","0.0372845","-0.108158"
"404","4533592864338","8.09155","3.19839","-1.10161","0","0","0","0.0798302","-0.947858","0.308532","-0.0886604","-0.315045","-0.944927","0.992858","0.0480792","-0.109188"
"404","4533609679524","8.01491","3.4283","-0.0862122","0","0","0","0.089971","-0.966164","0.24173","-0.0894167","-0.24957","-0.96422","0.991922","0.0651371","-0.108845"
"404","4533626464192","8.53218","2.58533","0.277786","0","0","0","0.105062","-0.961068","0.25556","-0.0791663","-0.26425","-0.9612","0.99131","0.0807543","-0.103847"
"404","4533643187825","8.62798","1.64658","0.469376","0","0","0","0.114177","-0.953695","0.278263","-0.0673951","-0.286885","-0.955591","0.991172","0.0903526","-0.0970299"
"404","4533660003010","8.41724","1.05267","0.6418","0","0","0","0.109667","-0.977046","0.182632","-0.0701246","-0.190888","-0.979104","0.991492","0.0945684","-0.0894491"
"404","4533676757160","8.64714","0.803604","0.69928","0","0","0","0.112021","-0.966906","0.229225","-0.0567056","-0.236521","-0.96997","0.992087","0.095659","-0.0813244"
"404","4533693602864","9.16441","0.765289","0.56517","0","0","0","0.111398","-0.958931","0.260848","-0.0453791","-0.267117","-0.962595","0.992739","0.0953939","-0.0732717"
"404","4533710295979","9.50926","0.937714","0.335266","0","0","0","0.108223","-0.964464","0.241032","-0.0411447","-0.246593","-0.968245","0.993275","0.0948691","-0.0663696"
"404","4533727111164","9.50926","1.24425","0.450211","0","0","0","0.107345","-0.964754","0.240262","-0.0357057","-0.245243","-0.968804","0.99358","0.0954172","-0.0607728"
"404","4533743895832","10.1606","1.819","1.15907","0","0","0","0.107524","-0.969563","0.219968","-0.031246","-0.224437","-0.973988","0.993711","0.097854","-0.0544274"
"404","4533760711018","10.5821","1.70406","1.3315","0","0","0","0.110262","-0.963321","0.244654","-0.0171948","-0.247967","-0.968616","0.993754","0.102594","-0.0439054"
"404","4533777526203","10.8312","0.650345","0.58432","0","0","0","0.11034","-0.958639","0.262367","-0.00545932","-0.26456","-0.964354","0.993879","0.104974","-0.034425"
"404","4533794280354","11.4634","-0.499161","-0.488541","0","0","0","0.105032","-0.958779","0.264027","-0.0028006","-0.265779","-0.96403","0.994465","0.100515","-0.0306006"
"404","4533811034504","12.2297","-0.65242","-0.526855","0","0","0","0.0960087","-0.937051","0.335734","0.000628646","-0.337235","-0.94142","0.99538","0.0905956","-0.0317884"
"404","4533827819172","12.383","-0.0393524","0.277786","0","0","0","0.0871367","-0.959839","0.266678","-0.0089182","-0.268437","-0.963256","0.996156","0.0815566","-0.0319507"
"404","4533844573323","12.019","0.324646","1.63803","0","0","0","0.0808415","-0.959623","0.269423","-0.00493501","-0.27069","-0.962654","0.996715","0.0764928","-0.0266188"
"404","4533861449543","11.7891","0.0372772","2.36604","0","0","0","0.0734406","-0.93437","0.348654","0.0117325","-0.348765","-0.937137","0.997231","0.0729145","-0.014651"
"404","4533878173176","11.1377","0.0181122","2.28941","0","0","0","0.0656288","-0.954041","0.292401","0.0194444","-0.291754","-0.956296","0.997655","0.0684461","-0.000596646"
"404","4533894988362","11.7699","1.87648","1.35065","0","0","0","0.0578465","-0.923214","0.379907","0.0346935","-0.378456","-0.924969","0.997722","0.0666865","0.0101372"
"404","4533911742512","13.5517","3.86894","-1.52309","0","0","0","0.0644212","-0.92808","0.366766","0.0404008","-0.364802","-0.930208","0.997105","0.0747428","0.0139942"
"404","4533928527180","14.6628","4.88432","-6.2935","0","0","0","0.0852572","-0.93067","0.355787","0.0318683","-0.354358","-0.934567","0.995849","0.0910168","-0.000552672"
"404","4533945342366","13.8007","3.90726","-9.97189","0","0","0","0.115244","-0.944751","0.306861","-0.00393768","-0.309351","-0.95094","0.993329","0.108382","-0.039371"
"404","4533962065998","11.1569","1.78069","-6.19771","0","0","0","0.135958","-0.955472","0.261896","-0.0486969","-0.270476","-0.961494","0.989517","0.117969","-0.083302"
"404","4533978881184","7.65091","-0.307571","-3.84125","0","0","0","0.14046","-0.961822","0.234882","-0.0750743","-0.246897","-0.966129","0.987236","0.118069","-0.106887"
"404","4533995665852","6.44394","-1.7636","-1.92542","0","0","0","0.139553","-0.952029","0.272333","-0.0851192","-0.28554","-0.954579","0.986549","0.110034","-0.120884"
"404","4534012450520","7.26775","-2.03181","-0.124527","0","0","0","0.12779","-0.952487","0.276476","-0.0915509","-0.288899","-0.952972","0.987567","0.0964683","-0.124119"
"404","4534029265705","10.0648","0.477921","-0.68013","0","0","0","0.113999","-0.952668","0.281829","-0.0908574","-0.292487","-0.951943","0.989318","0.0829143","-0.1199"
"404","4534046019856","10.812","2.81523","-1.6572","0","0","0","0.114779","-0.949565","0.291809","-0.0876782","-0.302288","-0.949176","0.989514","0.0833604","-0.117953"
"404","4534062835041","9.91159","4.25211","-2.2511","0","0","0","0.124867","-0.956194","0.264765","-0.0905981","-0.276727","-0.956668","0.988028","0.0954696","-0.121184"
"404","4534079619709","8.66629","3.61987","-2.05952","0","0","0","0.13739","-0.968467","0.207836","-0.0991488","-0.222218","-0.969943","0.985542","0.112653","-0.126553"
"404","4534096373860","8.34061","1.89563","-1.52309","0","0","0","0.143273","-0.979269","0.143195","-0.110526","-0.159615","-0.980973","0.983492","0.12472","-0.131103"
"404","4534113189045","8.2065","0.228867","-0.890869","0","0","0","0.14391","-0.981461","0.126585","-0.113716","-0.14347","-0.9831","0.983035","0.127083","-0.132254"
"404","4534129973713","8.30229","-0.65242","-0.833389","0","0","0","0.136313","-0.984311","0.112027","-0.11572","-0.128129","-0.984983","0.983884","0.121302","-0.13137"
"404","4534146727864","8.4364","-0.72905","-0.75676","0","0","0","0.130627","-0.980799","0.144808","-0.111124","-0.159624","-0.980904","0.985184","0.112041","-0.129841"
"404","4534163543049","9.22188","-0.0968323","-0.507706","0","0","0","0.117338","-0.987313","0.106981","-0.115701","-0.120583","-0.985938","0.986329","0.10331","-0.128382"
"404","4534180297200","9.89243","0.0947571","0.181992","0","0","0","0.112339","-0.986762","0.116967","-0.110567","-0.129395","-0.98541","0.987499","0.0977672","-0.12364"
"404","4534197081867","10.3714","-0.57579","0.162842","0","0","0","0.102653","-0.991055","0.0852795","-0.10704","-0.0962403","-0.989586","0.988941","0.0924556","-0.115962"
"404","4534213897053","10.3522","-1.95518","-0.124527","0","0","0","0.0976842","-0.984669","0.144515","-0.0952994","-0.153797","-0.983496","0.990644","0.0822998","-0.108862"
"404","4534230681721","9.66252","-2.72151","-0.258636","0","0","0","0.0773152","-0.990397","0.114616","-0.0954305","-0.121783","-0.987959","0.992429","0.0654464","-0.10393"
"404","4534247466389","8.66629","-2.28088","-0.0670624","0","0","0","0.0666674","-0.976878","0.203138","-0.0880357","-0.208556","-0.97404","0.993884","0.0470533","-0.099904"
"404","4534264251057","8.34061","-1.26549","0.220322","0","0","0","0.052423","-0.976379","0.20961","-0.0858323","-0.213527","-0.973159","0.994929","0.0330246","-0.0949986"
"404","4534281035725","8.89619","-0.0585175","-0.105377","0","0","0","0.0417476","-0.982407","0.182029","-0.083214","-0.184973","-0.979214","0.995657","0.0257325","-0.0894722"
"404","4534297759358","9.41347","0.861084","-0.392746","0","0","0","0.0426136","-0.977672","0.205771","-0.0787953","-0.208606","-0.97482","0.99598","0.0253268","-0.0859254"
"404","4534314574543","9.54758","0.61203","0.316101","0","0","0","0.0445628","-0.979489","0.196509","-0.0749802","-0.199428","-0.97704","0.996189","0.0288054","-0.0823293"
"404","4534331359211","9.33684","-0.326736","0.52684","0","0","0","0.0434431","-0.980921","0.189492","-0.068859","-0.19216","-0.978945","0.99668","0.0294802","-0.0758932"
"404","4534348174397","9.37515","-0.978119","0.814224","0","0","0","0.0412885","-0.968572","0.245282","-0.060262","-0.247459","-0.967023","0.997328","0.0251457","-0.0685853"
"404","4534364959065","9.64337","-1.20801","1.02496","0","0","0","0.0288162","-0.981982","0.186764","-0.0557194","-0.188129","-0.980562","0.998031","0.0178497","-0.0601366"
"404","4534381713215","10.1223","-1.20801","0.986649","0","0","0","0.0207243","-0.976153","0.216092","-0.0479146","-0.21686","-0.975026","0.998636","0.00985276","-0.0512662"
"404","4534398528401","10.4672","-1.03558","0.948334","0","0","0","0.0165633","-0.942725","0.333159","-0.0393977","-0.333561","-0.941905","0.999086","0.0024754","-0.0426661"
"404","4534415282551","10.3714","-0.690735","0.680115","0","0","0","0.00726462","-0.954902","0.296832","-0.0343812","-0.296903","-0.954289","0.999382","-0.00327288","-0.0349876"
"404","4534432067219","10.1415","-0.135147","0.488525","0","0","0","0.00333773","-0.946417","0.322929","-0.0296342","-0.322882","-0.945975","0.999555","-0.00641231","-0.029124"
"404","4534448882405","10.8695","0.190536","0.58432","0","0","0","0.00224099","-0.943188","0.332252","-0.0251995","-0.332201","-0.942872","0.99968","-0.0062596","-0.0245123"
"404","4534465667073","11.7891","-0.0202026","0.0670471","0","0","0","0.00178991","-0.947004","0.321216","-0.0210391","-0.321181","-0.946784","0.999777","-0.00506346","-0.020499"
"404","4534482421223","12.5554","-0.192627","0.0478973","0","0","0","0.000829562","-0.95291","0.303253","-0.0197827","-0.30321","-0.952719","0.999804","-0.00520883","-0.0191027"
"404","4534499205891","12.6512","0.305496","0.354416","0","0","0","0.00091383","-0.938576","0.345072","-0.0184596","-0.345029","-0.93841","0.999829","-0.00551234","-0.017641"
"404","4534515990559","12.0956","0.726974","1.35065","0","0","0","0.00138453","-0.951209","0.308544","-0.0134108","-0.308534","-0.951119","0.999909","-0.00282095","-0.0131836"
"404","4534532836262","11.7316","0.228867","1.2357","0","0","0","0.00223962","-0.958471","0.28518","-0.00465871","-0.285187","-0.95846","0.999987","0.00081802","-0.00510395"
"404","4534549590412","12.3447","-0.882324","0.431061","0","0","0","0.000464035","-0.96416","0.265322","0.00105366","-0.265321","-0.964159","0.999999","0.000726962","0.000892775"
"404","4534566375080","12.0381","-1.64865","-2.13615","0","0","0","-0.00510485","-0.955633","0.294516","-0.000384985","-0.294518","-0.955646","0.999987","-0.00499181","0.00113556"
"404","4534583159748","11.7891","-2.52994","-5.71875","0","0","0","-0.00906217","-0.953461","0.30138","-0.0182704","-0.301184","-0.953391","0.999792","-0.0141461","-0.0146907"
"404","4534599913899","10.1032","-2.72151","-6.31267","0","0","0","-0.0119445","-0.947511","0.319499","-0.0512549","-0.318522","-0.946529","0.998614","-0.0276818","-0.04476"
"404","4534616698567","9.26021","-0.767365","-5.50801","0","0","0","-0.0137887","-0.952223","0.305092","-0.0836414","-0.302954","-0.949328","0.9964","-0.0386083","-0.0754679"
"404","4534633422200","8.4364","2.77692","-2.69174","0","0","0","-0.015101","-0.976145","0.216592","-0.103447","-0.213929","-0.971356","0.99452","-0.0370742","-0.0977487"
"404","4534650237385","8.74294","5.88055","0.143677","0","0","0","0.00660482","-0.976244","0.216575","-0.105441","-0.216052","-0.970672","0.994404","-0.0164248","-0.104363"
"404","4534667022053","10.1415","5.51654","0.833374","0","0","0","0.0309144","-0.988319","0.149229","-0.0932787","-0.151502","-0.984046","0.99516","0.0165012","-0.0968727"
"404","4534683806721","10.927","2.02974","-0.81424","0","0","0","0.0538359","-0.988427","0.141821","-0.0824719","-0.145943","-0.985849","0.995138","0.0413778","-0.0893744"
"404","4534700652424","10.6588","-1.87856","-1.33151","0","0","0","0.0581607","-0.986783","0.151252","-0.0809526","-0.155672","-0.984486","0.99502","0.0450141","-0.0889366"
"404","4534717437092","9.91159","-4.42661","-1.44646","0","0","0","0.049306","-0.972669","0.226899","-0.0818912","-0.230347","-0.969657","0.995421","0.0292289","-0.0910106"
"404","4534734221760","9.22188","-4.42661","-1.12076","0","0","0","0.0292663","-0.959752","0.27932","-0.0891082","-0.280832","-0.955611","0.995592","0.00307754","-0.0937407"
"404","4534751006428","9.08778","-2.14677","-0.68013","0","0","0","0.0113151","-0.951581","0.307191","-0.0958238","-0.306829","-0.946929","0.995334","-0.0187216","-0.0946559"
"404","4534767760578","9.16441","0.937714","-0.56517","0","0","0","0.0105843","-0.930773","0.365443","-0.0969446","-0.364697","-0.926066","0.995233","-0.0256259","-0.0940935"
"404","4534784575764","8.72377","3.12177","-0.56517","0","0","0","0.0125588","-0.952366","0.304699","-0.0931305","-0.304512","-0.947945","0.995575","-0.0164717","-0.0925187"
"404","4534801299397","8.35976","3.77315","-0.603485","0","0","0","0.0335748","-0.93993","0.339713","-0.0848165","-0.341358","-0.936099","0.995831","0.00261607","-0.0911826"
"404","4534818114582","8.62798","3.17923","-0.105377","0","0","0","0.0463381","-0.962347","0.267844","-0.080191","-0.27085","-0.959276","0.995702","0.0229723","-0.0897223"
"404","4534834868733","8.5705","2.39375","-0.162857","0","0","0","0.0636457","-0.948578","0.310079","-0.0696358","-0.314173","-0.946809","0.99554","0.0386677","-0.0860507"
"404","4534851683918","8.64714","2.01057","-0.507706","0","0","0","0.0741434","-0.943053","0.324275","-0.0622223","-0.328912","-0.942309","0.995305","0.0496888","-0.0830655"
"404","4534868499104","8.83871","2.39375","-0.584335","0","0","0","0.0786404","-0.961149","0.26459","-0.0634144","-0.269697","-0.960855","0.994884","0.0587832","-0.0821599"
"404","4534885283772","8.78125","2.66196","-0.660965","0","0","0","0.0911835","-0.949668","0.299695","-0.0565374","-0.305401","-0.950544","0.994228","0.06973","-0.0815392"
"404","4534902068440","8.5705","2.47038","-0.431061","0","0","0","0.101579","-0.951407","0.2907","-0.0535479","-0.297016","-0.95337","0.993385","0.0812759","-0.0811164"
"404","4534918822590","8.87703","1.78069","0.181992","0","0","0","0.110202","-0.947921","0.298833","-0.0475982","-0.305353","-0.951049","0.992769","0.0905839","-0.0787699"
"404","4534935607258","9.10693","0.976028","0.56517","0","0","0","0.110981","-0.960002","0.257058","-0.0458408","-0.263325","-0.963617","0.992765","0.0951596","-0.0732314"
"404","4534952422444","8.97282","0.420441","0.775909","0","0","0","0.108296","-0.964419","0.24118","-0.0405747","-0.246693","-0.968244","0.99329","0.0950715","-0.065847"
"404","4534969176594","8.60883","0.439606","0.890854","0","0","0","0.105573","-0.949949","0.294027","-0.0278184","-0.298385","-0.95404","0.994022","0.0925411","-0.0579274"
"404","4534985991780","8.72377","0.841919","0.871704","0","0","0","0.101795","-0.947998","0.301558","-0.0198719","-0.30501","-0.952142","0.994607","0.090931","-0.0498871"
"404","4535002776448","9.01114","1.32088","0.756744","0","0","0","0.0999827","-0.953223","0.285254","-0.0139431","-0.288005","-0.957527","0.994891","0.0917589","-0.0420863"
"404","4535019561116","9.54758","1.78069","0.373581","0","0","0","0.101913","-0.94356","0.315134","-0.00356144","-0.317127","-0.948376","0.994787","0.0955293","-0.0356797"
"404","4535036345784","9.94991","1.83815","0.143677","0","0","0","0.105568","-0.957409","0.268745","-0.00376363","-0.270638","-0.962674","0.994405","0.100616","-0.0321741"
"404","4535053099934","10.4289","1.78069","0.258636","0","0","0","0.109345","-0.94939","0.294453","0.00318439","-0.295893","-0.955216","0.993999","0.105386","-0.0293313"
"404","4535069915119","10.6013","1.28256","0.411896","0","0","0","0.111438","-0.948396","0.296861","0.00792737","-0.297863","-0.954576","0.99374","0.108729","-0.0256749"
"404","4535086669270","10.8695","0.55455","-0.469391","0","0","0","0.110183","-0.939355","0.324766","0.0134488","-0.325316","-0.94551","0.99382","0.108547","-0.0232111"
"404","4535103453938","11.9424","0.0181122","-0.507706","0","0","0","0.106568","-0.945587","0.307422","0.0086619","-0.308288","-0.951253","0.994268","0.104036","-0.0246631"
"404","4535120238606","12.498","0.0181122","-0.258636","0","0","0","0.100143","-0.945404","0.310134","0.0059113","-0.31113","-0.950349","0.994956","0.0970037","-0.0255688"
"404","4535137023274","12.4405","0.248016","0.488525","0","0","0","0.093881","-0.943259","0.318509","0.00563854","-0.319413","-0.947599","0.995567","0.0907575","-0.0246682"
"404","4535153838459","11.54","-0.422516","1.96371","0","0","0","0.0862704","-0.944816","0.316037","0.0104506","-0.316344","-0.948587","0.996217","0.0851377","-0.0174173"
"404","4535170592610","10.6396","-0.72905","1.65718","0","0","0","0.074677","-0.939325","0.334802","0.0201762","-0.334247","-0.942269","0.997004","0.0771209","-0.0060086"
"404","4535187407795","10.4863","-0.269257","1.25487","0","0","0","0.0626771","-0.920396","0.38593","0.0291777","-0.384835","-0.922524","0.997607","0.0690817","0.0027347"
"404","4535204192463","11.4059","1.20593","0.546005","0","0","0","0.0572363","-0.926661","0.371516","0.032213","-0.370218","-0.928386","0.997841","0.0651051","0.00866066"
"404","4535220946614","13.0919","2.96849","-2.28943","0","0","0","0.0599316","-0.909461","0.411447","0.0362507","-0.409933","-0.911395","0.997544","0.0695366","0.00840066"
"404","4535237761799","14.5479","4.50116","-5.91034","0","0","0","0.0784496","-0.909529","0.40817","0.025621","-0.407457","-0.912865","0.996589","0.0820716","-0.00866182"
"404","4535254515950","14.2797","5.0376","-8.26682","0","0","0","0.107891","-0.936968","0.332341","-0.00565329","-0.334865","-0.942249","0.994147","0.0997817","-0.041426"
"404","4535271300617","10.8887","3.65819","-5.87202","0","0","0","0.135325","-0.94033","0.312195","-0.0369657","-0.319666","-0.946809","0.990111","0.116586","-0.0780188"
"404","4535288115803","6.98036","1.01434","-3.03659","0","0","0","0.149328","-0.952684","0.264753","-0.0625807","-0.276325","-0.959025","0.986805","0.126641","-0.100883"
"404","4535304869953","6.5014","-0.479996","-2.32774","0","0","0","0.150853","-0.953871","0.259565","-0.0741162","-0.272744","-0.959228","0.985774","0.125465","-0.111842"
"404","4535321685139","6.69299","-1.03558","-1.8871","0","0","0","0.142266","-0.96453","0.222357","-0.0897137","-0.236282","-0.967534","0.985754","0.117699","-0.120147"
"404","4535338408772","8.45555","-0.978119","-2.07867","0","0","0","0.135668","-0.960869","0.241507","-0.0952403","-0.25528","-0.962165","0.986166","0.107534","-0.126147"
"404","4535355193440","10.0265","-0.154312","-2.07867","0","0","0","0.128092","-0.960912","0.24544","-0.102443","-0.258974","-0.960436","0.986457","0.097881","-0.131611"
"404","4535372039143","10.6204","0.976028","-1.84879","0","0","0","0.123785","-0.962511","0.24135","-0.107759","-0.25482","-0.960965","0.986441","0.0929451","-0.135262"
"404","4535388793293","10.1032","1.60826","-2.00204","0","0","0","0.127266","-0.957326","0.25948","-0.107452","-0.273374","-0.955887","0.986031","0.0937706","-0.137658"
"404","4535405608479","9.22188","1.37836","-2.05952","0","0","0","0.12504","-0.970898","0.204258","-0.117109","-0.218878","-0.968699","0.985216","0.097206","-0.14107"
"404","4535422362629","8.89619","0.803604","-1.5614","0","0","0","0.127582","-0.97063","0.203959","-0.119963","-0.219231","-0.96827","0.984546","0.0990663","-0.14441"
"404","4535439147297","9.04945","0.477921","-1.08244","0","0","0","0.12465","-0.974104","0.188639","-0.122615","-0.203788","-0.971306","0.984595","0.0979437","-0.144842"
"404","4535455962483","9.31767","0.458755","-0.929184","0","0","0","0.121789","-0.974737","0.187233","-0.121804","-0.201889","-0.971805","0.985054","0.0955496","-0.143315"
"404","4535472716633","9.56674","0.362961","-1.46562","0","0","0","0.117834","-0.976938","0.178066","-0.12201","-0.1922","-0.973742","0.985509","0.0930136","-0.141844"
"404","4535489501301","9.72","0.209702","-1.5614","0","0","0","0.119033","-0.970257","0.210789","-0.119713","-0.224774","-0.967029","0.985647","0.0898742","-0.142908"
"404","4535506285969","9.94991","-0.135147","-1.21655","0","0","0","0.116342","-0.968252","0.221251","-0.119943","-0.23483","-0.964608","0.98594","0.0856873","-0.143456"
"404","4535523070637","9.73917","-0.250092","-0.775909","0","0","0","0.102182","-0.982469","0.15593","-0.126826","-0.168337","-0.977537","0.986648","0.0801102","-0.141804"
"404","4535539916340","9.35599","-0.422516","-0.354431","0","0","0","0.0974385","-0.980629","0.169921","-0.122765","-0.181272","-0.97574","0.987641","0.0742142","-0.13805"
"404","4535556670491","8.76208","-0.422516","0.143677","0","0","0","0.087019","-0.985899","0.142938","-0.120746","-0.152863","-0.980843","0.988862","0.0680928","-0.132345"
"404","4535573943440","8.24481","-0.326736","0.58432","0","0","0","0.0890666","-0.971484","0.219739","-0.10711","-0.228678","-0.967592","0.99025","0.0626439","-0.124423"
"404","4535590178791","8.30229","-0.192627","0.105362","0","0","0","0.0748698","-0.986432","0.146103","-0.105793","-0.153544","-0.982462","0.991566","0.0581001","-0.115853"
"404","4535606993977","8.74294","-0.135147","-0.431061","0","0","0","0.0748934","-0.978846","0.1904","-0.0981412","-0.197244","-0.97543","0.99235","0.0543672","-0.110837"
"404","4535623809162","9.0303","-0.211777","-0.0287476","0","0","0","0.0693636","-0.981975","0.17582","-0.0966417","-0.18203","-0.978532","0.992899","0.0508829","-0.107526"
"404","4535640532795","8.87703","-0.556625","0.71843","0","0","0","0.0641257","-0.982379","0.175553","-0.0911766","-0.180946","-0.979257","0.993768","0.0467893","-0.101173"
"404","4535657347981","8.76208","-0.939789","1.04413","0","0","0","0.0579676","-0.979472","0.193066","-0.0818403","-0.197403","-0.9769","0.994958","0.040828","-0.0916033"
"404","4535674102131","9.37515","-1.09306","0.775909","0","0","0","0.044384","-0.988499","0.144569","-0.0752912","-0.14761","-0.986176","0.996173","0.0328856","-0.0809768"
"404","4535690947834","10.199","-0.78653","0.124527","0","0","0","0.0414603","-0.971208","0.234599","-0.0650085","-0.236926","-0.96935","0.997023","0.0249386","-0.0729598"
"404","4535707763020","10.6396","-0.0202026","-0.124527","0","0","0","0.0354185","-0.970034","0.240372","-0.0615556","-0.242184","-0.968276","0.997475","0.0194986","-0.0682889"
"404","4535724517170","10.5438","0.420441","-0.354431","0","0","0","0.0376567","-0.952444","0.302378","-0.0564504","-0.304137","-0.950954","0.997695","0.0187404","-0.0652186"
"404","4535741271321","10.5055","0.899399","-1.00581","0","0","0","0.0334475","-0.977762","0.207031","-0.0584764","-0.208707","-0.976228","0.997728","0.020546","-0.0641567"
"404","4535758086506","11.3484","1.14845","-1.08244","0","0","0","0.0407806","-0.967468","0.249684","-0.0583091","-0.251771","-0.966029","0.997465","0.0248363","-0.0666795"
"404","4535774840657","12.2681","0.707825","-0.296951","0","0","0","0.0448927","-0.969807","0.239705","-0.0585715","-0.24209","-0.968484","0.997273","0.0294379","-0.0676712"
"404","4535791686360","13.1877","-0.939789","-0.0670624","0","0","0","0.0433325","-0.973338","0.225246","-0.0559476","-0.227468","-0.972177","0.997493","0.0295249","-0.0643127"
"404","4535808440510","13.6091","-2.14677","-0.162857","0","0","0","0.0339699","-0.971868","0.233062","-0.0537241","-0.234635","-0.970598","0.997978","0.0204501","-0.0601833"
"404","4535825194660","13.8199","-1.70613","0.0478973","0","0","0","0.0240642","-0.954789","0.29631","-0.0519364","-0.29719","-0.953405","0.99836","0.00755361","-0.05674"
"404","4535841948811","12.9769","-1.47623","0.181992","0","0","0","0.0117005","-0.969083","0.246459","-0.0499727","-0.246734","-0.967794","0.998682","-0.00099251","-0.0513146"
"404","4535858733479","13.2068","-1.87856","-0.62265","0","0","0","0.00542348","-0.960719","0.27747","-0.0458634","-0.277421","-0.959653","0.998933","-0.00752106","-0.0455664"
"404","4535875548664","13.0919","-2.45331","-2.88333","0","0","0","-0.00259213","-0.957519","0.288358","-0.0514764","-0.287849","-0.956291","0.998671","-0.0173224","-0.0485435"
"404","4535892333332","12.0381","-2.64488","-4.51178","0","0","0","-0.00674587","-0.942829","0.333208","-0.0680582","-0.33201","-0.940817","0.997659","-0.0290242","-0.0619275"
"404","4535909148518","10.4863","-2.45331","-5.10568","0","0","0","-0.0124077","-0.947905","0.318312","-0.0904635","-0.315966","-0.944448","0.995823","-0.040514","-0.0818304"
"404","4535925933186","9.08778","-1.55286","-5.31644","0","0","0","-0.0100852","-0.935369","0.35353","-0.114594","-0.350137","-0.929663","0.993361","-0.0498881","-0.103656"
"404","4535942748371","7.65091","0.228867","-5.08653","0","0","0","-0.0188544","-0.964593","0.263068","-0.135472","-0.258224","-0.95654","0.990602","-0.0536733","-0.125806"
"404","4535959472004","6.61636","2.66196","-3.87956","0","0","0","-0.0010038","-0.952301","0.305158","-0.153465","-0.301396","-0.941068","0.988154","-0.0477757","-0.145843"
"404","4535976287190","6.61636","5.11423","-2.19363","0","0","0","0.0185964","-0.957043","0.28935","-0.160548","-0.288503","-0.943923","0.986853","-0.0289009","-0.159016"
"404","4535993071858","9.27936","4.78853","-0.641815","0","0","0","0.0364269","-0.974652","0.220739","-0.156773","-0.223724","-0.961961","0.986963","0.000435342","-0.160948"
"404","4536009856526","10.7162","2.20216","-1.77214","0","0","0","0.0531429","-0.98071","0.188104","-0.149881","-0.19407","-0.96947","0.987275","0.0233272","-0.157303"
"404","4536026641194","10.9653","-0.499161","-2.42352","0","0","0","0.05478","-0.986914","0.151657","-0.151826","-0.158351","-0.97564","0.986888","0.0304202","-0.158514"
"404","4536043456379","9.89243","-1.80193","-2.34689","0","0","0","0.0565155","-0.978526","0.198224","-0.153939","-0.204708","-0.966642","0.986463","0.0241159","-0.162203"
"404","4536060210530","8.68546","-1.78276","-1.77214","0","0","0","0.0427632","-0.983254","0.17715","-0.160577","-0.181771","-0.970141","0.986097","0.0130402","-0.165661"
"404","4536076995198","8.58966","-1.26549","-1.27403","0","0","0","0.0473756","-0.964251","0.260721","-0.159993","-0.264969","-0.950891","0.985981","0.00333537","-0.166827"
"404","4536093779866","9.26021","-0.72905","-1.13992","0","0","0","0.0396466","-0.96633","0.254232","-0.160792","-0.257286","-0.952864","0.986192","-0.00310048","-0.165578"
"404","4536110564534","9.27936","-0.0968323","-1.1974","0","0","0","0.0419255","-0.956489","0.288741","-0.158155","-0.291705","-0.943343","0.986524","-0.00611584","-0.163504"
"404","4536127379719","9.14525","0.726974","-0.890869","0","0","0","0.0403815","-0.959058","0.280318","-0.156328","-0.283156","-0.946248","0.986879","-0.00561068","-0.161362"
"404","4536144103352","9.1261","1.18677","-0.948334","0","0","0","0.049192","-0.948706","0.312309","-0.150491","-0.316158","-0.936694","0.987387","-0.00092185","-0.158324"
"404","4536160857502","9.06862","1.74237","-1.06329","0","0","0","0.056164","-0.946838","0.316771","-0.145659","-0.321647","-0.935589","0.987739","0.00640603","-0.15598"
"404","4536177642170","8.78125","2.4129","-1.21655","0","0","0","0.056882","-0.964049","0.259565","-0.144524","-0.265198","-0.953301","0.987865","0.0167123","-0.154413"
"404","4536194426838","8.34061","2.85355","-1.13992","0","0","0","0.0700099","-0.962543","0.261935","-0.139807","-0.269456","-0.95281","0.987701","0.0300856","-0.153435"
"404","4536211242024","7.99576","2.81523","-0.967499","0","0","0","0.0807675","-0.967797","0.238425","-0.136863","-0.247709","-0.959119","0.987292","0.044834","-0.152463"
"404","4536228026692","7.78502","2.47038","-0.737595","0","0","0","0.0917091","-0.970206","0.224253","-0.133047","-0.235121","-0.962817","0.986858","0.0584629","-0.150646"
"404","4536244811360","8.24481","1.99142","-0.469391","0","0","0","0.103399","-0.966073","0.236669","-0.126103","-0.248757","-0.960322","0.986614","0.0694518","-0.147546"
"404","4536261626545","8.70461","1.4933","-0.296951","0","0","0","0.106969","-0.970493","0.216105","-0.121827","-0.228507","-0.965889","0.98677","0.0769933","-0.142675"
"404","4536278411213","8.97282","1.14845","-0.105377","0","0","0","0.106874","-0.975238","0.193623","-0.117784","-0.205785","-0.971483","0.987271","0.081021","-0.136861"
"404","4536295226399","9.16441","1.09099","-0.0287476","0","0","0","0.106871","-0.977056","0.184229","-0.111964","-0.195938","-0.974203","0.987949","0.0834869","-0.130335"
"404","4536311980549","9.58589","0.937714","0.277786","0","0","0","0.101954","-0.985436","0.136094","-0.109853","-0.147123","-0.982999","0.988705","0.0852701","-0.123253"
"404","4536328765217","9.89243","0.861084","0.52684","0","0","0","0.108285","-0.972346","0.206926","-0.0936484","-0.217202","-0.971624","0.989699","0.0858344","-0.114578"
"404","4536345549885","9.60506","0.976028","0.6418","0","0","0","0.105574","-0.974373","0.198625","-0.0850768","-0.207859","-0.974452","0.990765","0.0859784","-0.104841"
"404","4536362334553","9.54758","1.35919","0.910019","0","0","0","0.104738","-0.974953","0.196205","-0.0757483","-0.204538","-0.975924","0.991611","0.0873537","-0.0952738"
"404","4536379119221","9.94991","1.39752","1.42729","0","0","0","0.103586","-0.980495","0.167033","-0.0670693","-0.17444","-0.982381","0.992357","0.0905579","-0.0838306"
"404","4536395903889","10.563","0.592865","0.69928","0","0","0","0.103599","-0.979875","0.170622","-0.0539055","-0.176825","-0.982765","0.993157","0.0926164","-0.0711396"
"404","4536412688557","12.6512","-0.135147","-1.13992","0","0","0","0.100958","-0.968259","0.22865","-0.0440552","-0.23395","-0.97125","0.993915","0.0879826","-0.0662761"
"404","4536429503742","13.111","0.765289","-0.68013","0","0","0","0.0920864","-0.982458","0.16216","-0.0535634","-0.167504","-0.984415","0.994309","0.0819654","-0.0680487"
"404","4536446227375","12.5554","1.34004","0.603485","0","0","0","0.0925018","-0.976845","0.192918","-0.0484289","-0.197933","-0.979019","0.994534","0.0812182","-0.0656167"
"404","4536463042561","11.8849","0.669495","1.77214","0","0","0","0.0920954","-0.976489","0.194903","-0.0389498","-0.199118","-0.979201","0.994988","0.0825885","-0.0563719"
"404","4536479827229","11.5017","-0.441681","2.05951","0","0","0","0.0875926","-0.96589","0.243687","-0.0217555","-0.246424","-0.968918","0.995919","0.0795685","-0.0425983"
"404","4536496581379","11.8657","-0.250092","1.12076","0","0","0","0.0775187","-0.952661","0.293987","-0.00694814","-0.295383","-0.955354","0.996967","0.0720152","-0.0295169"
"404","4536513396565","14.3755","1.72321","-1.23572","0","0","0","0.0718407","-0.969618","0.233839","-0.00729341","-0.234949","-0.97198","0.997389","0.0681223","-0.0239507"
"404","4536530181233","15.1418","3.58156","-6.19771","0","0","0","0.0794674","-0.969843","0.23041","-0.0150453","-0.232281","-0.972532","0.996724","0.0738181","-0.0330504"
"404","4536546965901","12.5171","4.29042","-9.99106","0","0","0","0.102197","-0.965549","0.239314","-0.0462972","-0.244929","-0.968435","0.993686","0.0878915","-0.0697333"
"404","4536563720051","9.62421","1.91479","-5.68044","0","0","0","0.125568","-0.961195","0.245636","-0.0794638","-0.256545","-0.96326","0.988898","0.101435","-0.108594"
"404","4536580535237","7.63174","-0.499161","-3.72629","0","0","0","0.125857","-0.975798","0.178826","-0.108854","-0.192755","-0.97519","0.986058","0.103269","-0.130479"
"404","4536597319905","6.30983","-1.6295","-1.71468","0","0","0","0.121996","-0.97303","0.195779","-0.119751","-0.210241","-0.970288","0.98528","0.0949268","-0.142169"
"404","4536614043537","6.57803","-1.20801","-1.15909","0","0","0","0.11586","-0.96584","0.231798","-0.121214","-0.245374","-0.96182","0.985842","0.0833393","-0.145502"
"404","4536630889241","8.62798","0.420441","-1.48477","0","0","0","0.104767","-0.973163","0.204883","-0.127328","-0.217447","-0.967732","0.986312","0.0752992","-0.146692"
"404","4536647673909","9.94991","2.5087","-1.79131","0","0","0","0.103306","-0.977462","0.184107","-0.130298","-0.196801","-0.971747","0.986078","0.0763989","-0.147692"
"404","4536664458576","9.73917","3.61987","-2.65343","0","0","0","0.114544","-0.976222","0.184041","-0.130905","-0.198477","-0.971324","0.984756","0.087167","-0.150526"
"404","4536681243244","8.70461","3.35165","-2.67259","0","0","0","0.108512","-0.984193","0.139964","-0.135947","-0.154164","-0.978648","0.984756","0.087167","-0.150526"
"404","4536698027912","8.47472","0.707825","-1.77214","0","0","0","0.123455","-0.990018","0.0679955","-0.152921","-0.0866809","-0.984429","0.980497","0.111135","-0.162096"
"404","4536714812580","8.66629","-0.844009","-1.27403","0","0","0","0.117302","-0.991816","0.0504061","-0.156952","-0.0686334","-0.985219","0.980615","0.107656","-0.163718"
"404","4536731597248","8.91536","-1.3996","-0.967499","0","0","0","0.116203","-0.986632","0.114256","-0.149455","-0.131095","-0.980039","0.981916","0.0968072","-0.162691"
"404","4536748320881","9.41347","-1.3038","-1.17824","0","0","0","0.100209","-0.990393","0.0952901","-0.150577","-0.109765","-0.982486","0.983507","0.084105","-0.160129"
"404","4536765136067","9.54758","-0.824844","-1.21655","0","0","0","0.0882111","-0.991865","0.0917747","-0.150488","-0.104346","-0.98309","0.984668","0.0729084","-0.158468"
"404","4536781920735","9.41347","-0.479996","-0.948334","0","0","0","0.0881655","-0.985384","0.145759","-0.144681","-0.157445","-0.976872","0.985543","0.0650377","-0.156448"
"404","4536798735920","9.43263","-0.556625","-0.69928","0","0","0","0.0785543","-0.988848","0.126528","-0.143927","-0.13684","-0.980081","0.986465","0.0587789","-0.153071"
"404","4536815520588","9.22188","-0.671585","-0.718445","0","0","0","0.0678513","-0.992525","0.101443","-0.142394","-0.110271","-0.983648","0.987482","0.0522968","-0.148812"
"404","4536832305256","8.5705","-0.556625","-0.507706","0","0","0","0.0604545","-0.993454","0.0969238","-0.139739","-0.104569","-0.984651","0.988341","0.0459825","-0.145146"
"404","4536849089924","8.51303","-0.460846","-0.335281","0","0","0","0.0579475","-0.990947","0.121106","-0.134833","-0.127967","-0.98257","0.989172","0.0406084","-0.141028"
"404","4536865874592","8.81956","-0.288422","-0.373596","0","0","0","0.0537588","-0.990333","0.127872","-0.130251","-0.133917","-0.982395","0.990023","0.036157","-0.136191"
"404","4536882659260","9.26021","-0.0585175","-0.450226","0","0","0","0.0536615","-0.986162","0.15686","-0.12463","-0.162472","-0.97881","0.990751","0.0329749","-0.131624"
"404","4536899443928","9.58589","-0.0776672","-0.296951","0","0","0","0.0428928","-0.994837","0.091975","-0.123625","-0.0966372","-0.987612","0.991402","0.030991","-0.127132"
"404","4536916198078","9.43263","-0.499161","0.392746","0","0","0","0.0409868","-0.99385","0.102867","-0.117469","-0.107033","-0.987292","0.99223","0.0283822","-0.121133"
"404","4536933013264","9.04945","-1.09306","0.488525","0","0","0","0.0356944","-0.993211","0.110718","-0.10884","-0.113993","-0.987502","0.993418","0.0231978","-0.11217"
"404","4536949767414","9.54758","-1.41875","0.392746","0","0","0","0.0334698","-0.983193","0.179473","-0.0991158","-0.181954","-0.978299","0.994513","0.0149548","-0.10354"
"404","4536966552082","10.4289","-0.824844","0.52684","0","0","0","0.0255775","-0.978702","0.203687","-0.0919824","-0.205194","-0.974389","0.995432","0.00618678","-0.0952717"
"404","4536983336750","10.8503","-0.460846","0.105362","0","0","0","0.0133819","-0.990464","0.137119","-0.08606","-0.137763","-0.986719","0.9962","0.00140368","-0.0870829"
"404","4537000151936","10.6204","0.0564423","-0.277802","0","0","0","0.0187859","-0.970895","0.238769","-0.0795304","-0.239505","-0.967632","0.996655","-0.000811491","-0.081715"
"404","4537016936604","11.3484","0.267181","-0.603485","0","0","0","0.0211376","-0.963421","0.267158","-0.0759784","-0.267993","-0.96042","0.996885","2.68874e-06","-0.0788639"
"404","4537033721272","12.2106","0.343811","-1.38898","0","0","0","0.0164723","-0.981763","0.189396","-0.076628","-0.190104","-0.978769","0.996924","0.00160956","-0.078362"
"404","4537050475422","12.9194","0.248016","-0.871704","0","0","0","0.0205857","-0.976463","0.214699","-0.0779255","-0.215658","-0.973355","0.996747","0.00330671","-0.0805309"
"404","4537067290608","12.7279","0.784454","-0.105377","0","0","0","0.0197302","-0.981707","0.189371","-0.0764447","-0.190335","-0.978738","0.996879","0.00483428","-0.0788016"
"404","4537084075276","12.9577","1.45499","0.69928","0","0","0","0.0228669","-0.983017","0.182084","-0.07001","-0.183259","-0.980568","0.997284","0.00967488","-0.0730116"
"404","4537100829426","12.1531","1.03351","1.17822","0","0","0","0.0271633","-0.985339","0.168429","-0.0596132","-0.169788","-0.983676","0.997852","0.0166793","-0.0633513"
"404","4537117644612","12.0573","-1.43791","-0.220322","0","0","0","0.0273773","-0.981316","0.190445","-0.0513411","-0.191645","-0.980121","0.998306","0.0170554","-0.0556285"
"404","4537134459797","12.2489","-2.16592","-2.21278","0","0","0","0.0136549","-0.99289","0.118251","-0.0532965","-0.118817","-0.991485","0.998485","0.00723624","-0.0545399"
"404","4537151213948","11.6933","-1.91687","-6.77246","0","0","0","0.0060665","-0.988495","0.151133","-0.0678225","-0.151194","-0.986175","0.997679","-0.00426755","-0.0679594"
"404","4537167998616","9.83495","-1.47623","-7.9028","0","0","0","0.0108799","-0.971757","0.235733","-0.101422","-0.235603","-0.966543","0.994784","-0.0133926","-0.101121"
"404","4537184752766","8.93451","-0.614105","-6.92572","0","0","0","0.00439209","-0.984594","0.174798","-0.136956","-0.173745","-0.975221","0.990567","-0.0196564","-0.135609"
"404","4537201567951","9.04945","1.39752","-5.06737","0","0","0","0.00784615","-0.985907","0.16711","-0.164354","-0.166114","-0.972314","0.98637","-0.0198363","-0.163341"
"404","4537218352619","8.35976","4.07968","-2.19363","0","0","0","0.0216808","-0.985872","0.166091","-0.177056","-0.16729","-0.969879","0.983962","-0.00837967","-0.178182"
"404","4537235137287","8.78125","4.6161","-0.0670624","0","0","0","0.0354709","-0.993134","0.111479","-0.175983","-0.116014","-0.977533","0.983754","0.0150555","-0.17889"
"404","4537251921955","10.8312","0.918564","-1.17824","0","0","0","0.0520091","-0.993154","0.104593","-0.166882","-0.111905","-0.979606","0.984604","0.0334938","-0.171559"
"404","4537268676106","10.6013","-1.70613","-1.6572","0","0","0","0.0467977","-0.99592","0.0771639","-0.16568","-0.0839173","-0.982603","0.985069","0.033199","-0.168931"
"404","4537285491291","9.73917","-2.74068","-1.58057","0","0","0","0.0442057","-0.989589","0.136963","-0.163972","-0.142425","-0.976129","0.985474","0.0206924","-0.168561"
"404","4537302275959","8.64714","-2.07013","-1.31235","0","0","0","0.0343824","-0.984923","0.169543","-0.164654","-0.172908","-0.971078","0.985752","0.00547195","-0.168117"
"404","4537319030110","8.45555","-0.518311","-1.21655","0","0","0","0.0284554","-0.980921","0.192314","-0.164945","-0.194362","-0.966963","0.985892","-0.0042059","-0.167329"
"404","4537335845295","8.60883","0.976028","-1.17824","0","0","0","0.0331038","-0.973414","0.226646","-0.162701","-0.228994","-0.959734","0.98612","-0.00510469","-0.165956"
"404","4537352599446","8.53218","2.0489","-0.833389","0","0","0","0.0360802","-0.978029","0.205321","-0.160147","-0.208458","-0.964831","0.986434","0.0019296","-0.16415"
"404","4537369414631","8.68546","2.16385","-0.220322","0","0","0","0.0437572","-0.981378","0.187036","-0.154786","-0.191614","-0.969188","0.986978","0.0134584","-0.160288"
