"id","time","accX","accY","accZ","gyroX","gyroY","gyroZ","rot1","rot2","rot3","rot4","rot5","rot6","rot7","rot8","rot9"
"10","159988477462995","9.87326","0.382126","-2.17447","0","0","0","0","0","0","0","0","0","0","0","0"
"10","159988487564313","9.87326","0.401291","-2.13615","0","0","0","0","0","0","0","0","0","0","0","0"
"10","159988496780622","9.85411","0.382126","-2.07867","0","0","0","0.141919","-0.852459","0.503162","-0.159374","-0.521353","-0.838326","0.976964","0.0387837","-0.20985"
"10","159988512741315","9.83495","0.439606","-2.02121","0","0","0","0.143859","-0.845274","0.514603","-0.154963","-0.532839","-0.831907","0.97739","0.0399327","-0.207639"
"10","159988529495466","9.8158","0.439606","-2.02121","0","0","0","0.14695","-0.835554","0.529391","-0.151144","-0.547884","-0.822787","0.977528","0.0408945","-0.2068"
"10","159988546219098","9.79663","0.420441","-1.96373","0","0","0","0.149771","-0.824387","0.545852","-0.146928","-0.564506","-0.812247","0.977743","0.0414498","-0.205673"
"10","159988563034284","9.79663","0.49707","-1.96373","0","0","0","0.141729","-0.85352","0.501415","-0.15431","-0.519385","-0.840492","0.977804","0.041749","-0.205319"
"10","159988579818952","9.8158","0.49707","-1.98289","0","0","0","0.151041","-0.82047","0.551376","-0.144917","-0.570127","-0.808674","0.977847","0.0422395","-0.205013"
"10","159988596634138","9.85411","0.439606","-2.04036","0","0","0","0.154581","-0.80611","0.571219","-0.141135","-0.590256","-0.794782","0.977847","0.0422395","-0.205013"
"10","159988613388288","9.87326","0.401291","-2.04036","0","0","0","0.154683","-0.806337","0.57087","-0.14095","-0.589925","-0.79506","0.977858","0.0425177","-0.204905"
"10","159988630142438","9.79663","0.362961","-2.00204","0","0","0","0.148375","-0.830687","0.536605","-0.147264","-0.55512","-0.81863","0.977905","0.0424419","-0.204696"
"10","159988646988141","9.77748","0.420441","-1.96373","0","0","0","0.139091","-0.861885","0.487655","-0.155617","-0.505347","-0.848768","0.977976","0.0421682","-0.204413"
"10","159988663772809","9.79663","0.439606","-1.96373","0","0","0","0.152819","-0.810098","0.566028","-0.141509","-0.584791","-0.798746","0.97807","0.0419655","-0.204003"
"10","159988680557477","9.79663","0.420441","-2.00204","0","0","0","0.145842","-0.837106","0.527241","-0.148308","-0.545416","-0.82494","0.978128","0.0421171","-0.203694"
"10","159988697311628","9.83495","0.382126","-1.98289","0","0","0","0.143722","-0.844677","0.51562","-0.150196","-0.533612","-0.832286","0.978154","0.042174","-0.203559"
"10","159988714065778","9.83495","0.343811","-2.02121","0","0","0","0.143274","-0.845788","0.513921","-0.150452","-0.531857","-0.833362","0.97818","0.0420783","-0.203452"
"10","159988730880964","9.8158","0.362961","-2.02121","0","0","0","0.149776","-0.820458","0.551739","-0.143764","-0.570175","-0.808846","0.978212","0.0418252","-0.203351"
"10","159988747726667","9.83495","0.420441","-2.07867","0","0","0","0.148231","-0.825319","0.544863","-0.145247","-0.563143","-0.813494","0.978228","0.0414459","-0.20335"
"10","159988764450300","9.8158","0.439606","-2.09784","0","0","0","0.155197","-0.796448","0.584453","-0.137885","-0.603294","-0.785509","0.978214","0.0413213","-0.203447"
"10","159988781173932","9.8158","0.458755","-2.11699","0","0","0","0.151681","-0.813093","0.562025","-0.14231","-0.580644","-0.801623","0.978131","0.0416095","-0.203784"
"10","159988798050153","9.77748","0.439606","-2.05952","0","0","0","0.14886","-0.824328","0.54619","-0.145258","-0.564581","-0.812495","0.978131","0.0416095","-0.203784"
"10","159988814865339","9.73917","0.420441","-1.98289","0","0","0","0.14458","-0.841252","0.520954","-0.149802","-0.539026","-0.828861","0.978088","0.0417966","-0.203953"
"10","159988831619489","9.77748","0.362961","-2.05952","0","0","0","0.147721","-0.829974","0.537886","-0.146776","-0.556227","-0.817966","0.978077","0.0418824","-0.203987"
"10","159988848373639","9.85411","0.401291","-2.05952","0","0","0","0.150072","-0.820491","0.551609","-0.14449","-0.570138","-0.808743","0.97806","0.0416678","-0.204114"
"10","159988865127790","9.91159","0.439606","-2.11699","0","0","0","0.145399","-0.838026","0.525901","-0.149471","-0.544054","-0.825629","0.978017","0.0414385","-0.204366"
"10","159988881942975","9.89243","0.439606","-2.15532","0","0","0","0.146471","-0.834807","0.530701","-0.148862","-0.548979","-0.822473","0.97795","0.0414674","-0.20468"
"10","159988898788679","9.8158","0.401291","-2.07867","0","0","0","0.144694","-0.842593","0.518749","-0.151258","-0.536939","-0.82995","0.977847","0.0416243","-0.205141"
"10","159988915512311","9.77748","0.401291","-2.07867","0","0","0","0.149389","-0.82575","0.543893","-0.146887","-0.562496","-0.813648","0.977807","0.0416587","-0.205323"
"10","159988932296979","9.83495","0.401291","-2.04036","0","0","0","0.145723","-0.839361","0.523678","-0.150679","-0.541983","-0.826771","0.977783","0.0415722","-0.205454"
"10","159988949081647","9.85411","0.382126","-2.05952","0","0","0","0.151826","-0.815644","0.558277","-0.144385","-0.577068","-0.803832","0.977805","0.0414355","-0.205381"
"10","159988965896833","9.87326","0.382126","-2.07867","0","0","0","0.156642","-0.794928","0.586134","-0.139074","-0.6053","-0.783754","0.977815","0.0412533","-0.205369"
"10","159988982712018","9.8158","0.362961","-2.07867","0","0","0","0.150892","-0.818442","0.554422","-0.14579","-0.573135","-0.806388","0.977741","0.0408483","-0.205802"
"10","159988999466169","9.73917","0.420441","-2.04036","0","0","0","0.141833","-0.851491","0.504823","-0.154618","-0.522775","-0.838331","0.977741","0.0408483","-0.205802"
"10","159989016159284","9.79663","0.401291","-2.05952","0","0","0","0.14184","-0.851503","0.5048","-0.154784","-0.522762","-0.838309","0.977713","0.0407707","-0.205948"
"10","159989033004987","9.91159","0.362961","-2.2511","0","0","0","0.144296","-0.843026","0.518156","-0.15243","-0.536323","-0.830134","0.977724","0.0408027","-0.205892"
"10","159989049881208","9.93074","0.382126","-2.21278","0","0","0","0.152673","-0.812508","0.562602","-0.144871","-0.581526","-0.800525","0.977601","0.0407138","-0.206492"
"10","159989066604841","9.85411","0.420441","-2.23195","0","0","0","0.1454","-0.840684","0.521642","-0.153107","-0.540013","-0.827614","0.977454","0.0404684","-0.207233"
"10","159989083358991","9.73917","0.458755","-2.15532","0","0","0","0.151371","-0.819363","0.55293","-0.147943","-0.571854","-0.806905","0.977343","0.0403395","-0.207781"
"10","159989100143659","9.8158","0.477921","-2.17447","0","0","0","0.142196","-0.854008","0.50045","-0.157712","-0.518676","-0.840299","0.977194","0.0405603","-0.208441"
"10","159989116928327","9.85411","0.439606","-2.17447","0","0","0","0.144719","-0.8473","0.511017","-0.156216","-0.529542","-0.833776","0.977064","0.0408344","-0.208996"
"10","159989133743513","9.8158","0.401291","-2.13615","0","0","0","0.145036","-0.847789","0.510117","-0.15678","-0.528746","-0.834174","0.976926","0.041009","-0.209604"
"10","159989150528180","9.73917","0.420441","-2.09784","0","0","0","0.150872","-0.827938","0.540144","-0.151687","-0.559317","-0.814958","0.976846","0.0410217","-0.209973"
"10","159989167282331","9.77748","0.477921","-2.19363","0","0","0","0.153205","-0.819609","0.55206","-0.149634","-0.571454","-0.806877","0.9768","0.0410107","-0.210191"
"10","159989184036481","9.87326","0.49707","-2.19363","0","0","0","0.14732","-0.842545","0.518087","-0.156027","-0.537041","-0.829001","0.976705","0.0412927","-0.210577"
"10","159989200882184","9.85411","0.477921","-2.30858","0","0","0","0.137956","-0.874559","0.464881","-0.165184","-0.483112","-0.859836","0.976567","0.0418285","-0.211111"
"10","159989217636335","9.77748","0.439606","-2.19363","0","0","0","0.152119","-0.830615","0.535667","-0.153268","-0.555243","-0.817444","0.976406","0.0422479","-0.211769"
"10","159989234451520","9.73917","0.439606","-2.17447","0","0","0","0.146484","-0.851426","0.503603","-0.159494","-0.522762","-0.837426","0.97627","0.0423475","-0.212374"
"10","159989251144636","9.73917","0.420441","-2.15532","0","0","0","0.141209","-0.868931","0.474361","-0.164723","-0.493105","-0.854233","0.976179","0.0424877","-0.212764"
"10","159989268020856","9.79663","0.439606","-2.23195","0","0","0","0.139964","-0.873571","0.466138","-0.16636","-0.484826","-0.858643","0.976081","0.0426319","-0.213186"
"10","159989284805524","9.8158","0.458755","-2.27026","0","0","0","0.154289","-0.827849","0.539315","-0.153884","-0.559324","-0.81454","0.975968","0.0426826","-0.213691"
"10","159989301559675","9.8158","0.477921","-2.28943","0","0","0","0.153101","-0.83328","0.531229","-0.15591","-0.551202","-0.819676","0.975834","0.0426687","-0.214306"
"10","159989318344343","9.83495","0.49707","-2.30858","0","0","0","0.146891","-0.855824","0.495973","-0.162739","-0.515489","-0.841301","0.975674","0.0428651","-0.214997"
"10","159989335129011","9.8158","0.49707","-2.34689","0","0","0","0.154337","-0.833298","0.530843","-0.156882","-0.551133","-0.819537","0.975484","0.0432052","-0.215789"
"10","159989351913679","9.8158","0.458755","-2.30858","0","0","0","0.146244","-0.862035","0.485292","-0.165563","-0.504975","-0.847106","0.975296","0.0435379","-0.21657"
"10","159989368759382","9.79663","0.439606","-2.2511","0","0","0","0.154929","-0.835432","0.527305","-0.15834","-0.547848","-0.821456","0.975154","0.0437741","-0.21716"
"10","159989385483014","9.75832","0.49707","-2.27026","0","0","0","0.145153","-0.86767","0.475478","-0.168128","-0.49521","-0.85235","0.97502","0.0437797","-0.217761"
"10","159989402237165","9.77748","0.458755","-2.23195","0","0","0","0.148014","-0.860517","0.487445","-0.166443","-0.507518","-0.845413","0.974879","0.044001","-0.218346"
"10","159989419052350","9.75832","0.439606","-2.28943","0","0","0","0.153452","-0.844595","0.512944","-0.162107","-0.533576","-0.830071","0.974769","0.0442241","-0.218792"
"10","159989435806501","9.79663","0.401291","-2.30858","0","0","0","0.15214","-0.8503","0.503828","-0.164219","-0.524424","-0.835471","0.974621","0.0443704","-0.219422"
"10","159989452652204","9.79663","0.439606","-2.28943","0","0","0","0.15227","-0.850504","0.503445","-0.164918","-0.524108","-0.821025","0.974482","0.0441993","-0.220069"
"10","159989469436872","9.79663","0.458755","-2.30858","0","0","0","0.150597","-0.856284","0.494064","-0.167102","-0.514621","-0.840977","0.97437","0.0440899","-0.220588"
"10","159989487106550","9.8158","0.401291","-2.30858","0","0","0","0.150748","-0.856529","0.493593","-0.167532","-0.514211","-0.841142","0.974273","0.0441074","-0.221012"
"10","159989499405134","9.8158","0.382126","-2.38521","0","0","0","0.157664","-0.834716","0.527627","-0.161628","-0.548918","-0.820101","0.974176","0.0440208","-0.221458"
"10","159989509781110","9.83495","0.382126","-2.28943","0","0","0","0.157664","-0.834716","0.527627","-0.161628","-0.548918","-0.820101","0.974176","0.0440208","-0.221458"
"10","159989520736921","9.77748","0.382126","-2.42352","0","0","0","0.153235","-0.849514","0.504821","-0.166628","-0.525752","-0.834158","0.97404","0.0437048","-0.222117"
"10","159989536575544","9.75832","0.382126","-2.27026","0","0","0","0.153106","-0.850092","0.503887","-0.16749","-0.524844","-0.834557","0.973913","0.0433799","-0.222738"
"10","159989553360212","9.75832","0.401291","-2.27026","0","0","0","0.158178","-0.833624","0.529198","-0.163173","-0.550645","-0.818636","0.973835","0.0431389","-0.223125"
"10","159989570114362","9.77748","0.382126","-2.34689","0","0","0","0.155208","-0.843552","0.514131","-0.166536","-0.535332","-0.828061","0.973743","0.0429003","-0.223569"
"10","159989586960065","9.8158","0.382126","-2.34689","0","0","0","0.153021","-0.850561","0.503121","-0.169097","-0.524144","-0.834673","0.973648","0.0426458","-0.224032"
"10","159989603775251","9.79663","0.382126","-2.32774","0","0","0","0.159739","-0.829219","0.535611","-0.163545","-0.55731","-0.814039","0.973518","0.0424372","-0.224638"
"10","159989620498884","9.75832","0.382126","-2.32774","0","0","0","0.167052","-0.803258","0.571726","-0.156738","-0.594136","-0.788946","0.97341","0.042184","-0.225153"
"10","159989637222516","9.77748","0.382126","-2.38521","0","0","0","0.165569","-0.808648","0.564514","-0.158663","-0.586799","-0.794036","0.973351","0.0419002","-0.225458"
"10","159989654037702","9.83495","0.343811","-2.36606","0","0","0","0.156176","-0.841015","0.517979","-0.168386","-0.539407","-0.825037","0.97327","0.0416308","-0.225858"
"10","159989670822370","9.77748","0.382126","-2.32774","0","0","0","0.149632","-0.860849","0.486363","-0.174862","-0.507187","-0.84391","0.973157","0.0412293","-0.226421"
"10","159989687637555","9.72","0.362961","-2.30858","0","0","0","0.159632","-0.829768","0.534792","-0.166449","-0.556607","-0.813931","0.973043","0.0409144","-0.226966"
"10","159989704422223","9.70084","0.324646","-2.42352","0","0","0","0.148436","-0.864078","0.480975","-0.176869","-0.501717","-0.846757","0.972977","0.0406194","-0.227301"
"10","159989721115339","9.66252","0.382126","-2.32774","0","0","0","0.148013","-0.865302","0.478899","-0.177972","-0.499632","-0.847758","0.97284","0.0402482","-0.227951"
"10","159989737991559","9.66252","0.401291","-2.23195","0","0","0","0.15808","-0.835419","0.52639","-0.169947","-0.548157","-0.818927","0.972692","0.0399973","-0.228629"
"10","159989754806745","9.77748","0.343811","-2.34689","0","0","0","0.157894","-0.835964","0.525579","-0.170063","-0.547324","-0.81946","0.972701","0.0400065","-0.228586"
"10","159989771560895","9.8158","0.267181","-2.44269","0","0","0","0.152605","-0.851924","0.500936","-0.17477","-0.522147","-0.834756","0.972711","0.0398393","-0.228572"
"10","159989788315046","9.72","0.228867","-2.27026","0","0","0","0.166004","-0.80709","0.566611","-0.162717","-0.589126","-0.791488","0.972608","0.0391928","-0.229124"
"10","159989805099714","9.73917","0.286331","-2.32774","0","0","0","0.152359","-0.849855","0.504512","-0.175451","-0.525622","-0.832429","0.972627","0.0383109","-0.229192"
"10","159989821914899","9.77748","0.401291","-2.28943","0","0","0","0.152091","-0.849406","0.50535","-0.17599","-0.526401","-0.831823","0.972572","0.0375763","-0.229548"
"10","159989838699567","9.70084","0.439606","-2.38521","0","0","0","0.160107","-0.824129","0.543303","-0.168903","-0.565159","-0.807507","0.972542","0.0375224","-0.229684"
"10","159989855484235","9.52841","0.362961","-2.481","0","0","0","0.150596","-0.855048","0.496198","-0.178026","-0.517173","-0.837161","0.972434","0.0377374","-0.230105"
"10","159989872207868","9.54758","0.113907","-2.2511","0","0","0","0.162452","-0.819857","0.549039","-0.168741","-0.571317","-0.803196","0.972181","0.0378348","-0.231155"
"10","159989889053571","9.68169","-0.0776672","-2.28943","0","0","0","0.161874","-0.820448","0.548326","-0.169828","-0.570526","-0.803529","0.972088","0.0369495","-0.231688"
"10","159989905868757","9.8158","0.0372772","-2.42352","0","0","0","0.163301","-0.80928","0.564268","-0.167707","-0.586392","-0.792476","0.972218","0.0347805","-0.23148"
"10","159989922622907","9.98822","0.248016","-2.53848","0","0","0","0.162331","-0.807631","0.566904","-0.169707","-0.582689","-0.794778","0.972244","0.0328105","-0.231655"
"10","159989939407575","10.2181","0.324646","-2.46185","0","0","0","0.154809","-0.831412","0.533656","-0.176178","-0.554743","-0.813156","0.972109","0.0318652","-0.232355"
"10","159989956131208","10.1415","0.209702","-2.55763","0","0","0","0.15524","-0.830475","0.534988","-0.176918","-0.55617","-0.812019","0.971906","0.0314089","-0.233265"
"10","159989972946393","9.79663","0.171387","-2.38521","0","0","0","0.138007","-0.878866","0.456671","-0.190666","-0.476033","-0.85851","0.971906","0.0314089","-0.233265"
"10","159989989792096","9.41347","0.248016","-2.21278","0","0","0","0.156902","-0.823341","0.545429","-0.176149","-0.566743","-0.804844","0.971779","0.0302048","-0.233953"
"10","159990006546247","9.35599","0.267181","-1.98289","0","0","0","0.169396","-0.779565","0.602979","-0.164169","-0.625592","-0.762681","0.971779","0.0302048","-0.233953"
"10","159990023361432","9.66252","0.305496","-1.8871","0","0","0","0.163561","-0.794717","0.584527","-0.16611","-0.606232","-0.777747","0.972448","0.030113","-0.231167"
"10","159990040085065","9.8158","0.286331","-2.09784","0","0","0","0.154032","-0.827325","0.540192","-0.174983","-0.560916","-0.809169","0.972448","0.030113","-0.231167"
"10","159990056930768","9.83495","0.209702","-2.30858","0","0","0","0.153431","-0.826161","0.542142","-0.173246","-0.56263","-0.808352","0.972854","0.0301021","-0.229454"
"10","159990073745954","9.68169","0.0181122","-2.40437","0","0","0","0.160815","-0.799128","0.579252","-0.165672","-0.60042","-0.782335","0.972981","0.0298457","-0.22895"
"10","159990090500104","9.77748","-0.0968323","-2.42352","0","0","0","0.16521","-0.780303","0.603185","-0.161422","-0.624735","-0.763969","0.972959","0.0288475","-0.229171"
"10","159990107223737","9.89243","-0.0585175","-2.481","0","0","0","0.157361","-0.805377","0.571494","-0.169838","-0.592153","-0.787725","0.972827","0.0268955","-0.229966"
"10","159990124038923","9.83495","0.133072","-2.53848","0","0","0","0.156711","-0.804197","0.573331","-0.171308","-0.593837","-0.786137","0.972674","0.0249798","-0.230826"
"10","159990140793073","9.68169","0.382126","-2.59595","0","0","0","0.152382","-0.818031","0.554621","-0.176447","-0.574676","-0.799133","0.972443","0.0239122","-0.231909"
"10","159990157608259","9.4901","0.382126","-2.5768","0","0","0","0.153083","-0.819275","0.552588","-0.177945","-0.572892","-0.800082","0.97206","0.0241489","-0.233486"
"10","159990174392927","9.47095","0.209702","-2.69174","0","0","0","0.145136","-0.848258","0.509307","-0.18673","-0.52899","-0.82783","0.971631","0.0250453","-0.23517"
"10","159990191116559","9.54758","0.171387","-2.82585","0","0","0","0.155128","-0.821615","0.548529","-0.18097","-0.569489","-0.801831","0.971177","0.0251191","-0.237032"
"10","159990207931745","9.70084","0.343811","-2.82585","0","0","0","0.158388","-0.814614","0.557958","-0.181258","-0.579477","-0.794577","0.970597","0.0247173","-0.239438"
"10","159990224807966","9.85411","0.650345","-2.61511","0","0","0","0.158096","-0.820003","0.550092","-0.184532","-0.571819","-0.799356","0.970027","0.0248655","-0.24172"
"10","159990241531598","9.89243","0.841919","-2.55763","0","0","0","0.162341","-0.813317","0.558713","-0.182811","-0.581213","-0.792951","0.969652","0.0265898","-0.243038"
"10","159990258285749","9.83495","0.784454","-2.50017","0","0","0","0.171543","-0.791084","0.587162","-0.17554","-0.611003","-0.771921","0.969411","0.0293475","-0.24368"
"10","159990275100934","9.83495","0.573715","-2.53848","0","0","0","0.16978","-0.810456","0.560656","-0.178881","-0.584809","-0.791201","0.969111","0.0340393","-0.244264"
"10","159990291885602","9.75832","0.49707","-2.71091","0","0","0","0.160623","-0.838684","0.520394","-0.187147","-0.543554","-0.818245","0.969111","0.0340393","-0.244264"
"10","159990308731305","9.31767","0.61203","-2.76837","0","0","0","0.161458","-0.840222","0.517647","-0.188085","-0.541114","-0.819646","0.968791","0.0349769","-0.2454"
"10","159990325454938","8.78125","0.861084","-2.61511","0","0","0","0.152252","-0.870106","0.468759","-0.198191","-0.491533","-0.848007","0.968266","0.0362069","-0.247284"
"10","159990342148054","8.74294","1.11014","-2.15532","0","0","0","0.163727","-0.847903","0.504236","-0.191898","-0.528744","-0.826804","0.967661","0.0386082","-0.249281"
"10","159990359024274","9.89243","1.28256","-1.31235","0","0","0","0.169496","-0.84058","0.514487","-0.188133","-0.540038","-0.820345","0.967408","0.0422534","-0.249675"
"10","159990375778425","10.6013","1.09099","-1.38898","0","0","0","0.167154","-0.851727","0.496609","-0.185977","-0.521892","-0.832491","0.968231","0.0467961","-0.245638"
"10","159990392563093","10.9653","0.74614","-1.46562","0","0","0","0.160354","-0.870339","0.465615","-0.184624","-0.489841","-0.852039","0.969639","0.0506638","-0.239233"
"10","159990409378278","10.6588","0.516235","-1.44646","0","0","0","0.159052","-0.86983","0.46701","-0.178123","-0.490552","-0.853013","0.971069","0.0524882","-0.23296"
"10","159990426101911","10.6013","0.209702","-1.58057","0","0","0","0.167952","-0.834148","0.525347","-0.162073","-0.549031","-0.819938","0.972381","0.0525659","-0.227403"
"10","159990442947614","10.3139","0.0181122","-2.481","0","0","0","0.16378","-0.835304","0.524826","-0.158759","-0.547394","-0.821679","0.973638","0.0512536","-0.222265"
"10","159990459823835","10.4672","0.0947571","-2.65343","0","0","0","0.162244","-0.832256","0.530119","-0.158505","-0.552242","-0.818477","0.973937","0.0487664","-0.221514"
"10","159990476547468","10.2373","0.401291","-2.51932","0","0","0","0.163458","-0.822698","0.544472","-0.158097","-0.566606","-0.80868","0.9738","0.0461054","-0.222682"
"10","159990493240583","9.64337","0.803604","-2.13615","0","0","0","0.168673","-0.802341","0.572537","-0.153881","-0.595172","-0.788727","0.973586","0.0449343","-0.223854"
"10","159990510116804","8.99199","1.39752","-1.42729","0","0","0","0.166441","-0.813666","0.556997","-0.156354","-0.579508","-0.799828","0.973576","0.0460357","-0.223674"
"10","159990526993024","8.85788","1.64658","-1.48477","0","0","0","0.157695","-0.851816","0.499541","-0.163155","-0.521393","-0.837574","0.973916","0.0505788","-0.221199"
"10","159990543686139","9.10693","1.62741","-1.31235","0","0","0","0.17187","-0.813678","0.555327","-0.146265","-0.578545","-0.802429","0.974201","0.0566885","-0.218447"
"10","159990560470807","9.35599","1.30173","-1.13992","0","0","0","0.177122","-0.804137","0.567442","-0.137199","-0.591103","-0.794842","0.974579","0.0629319","-0.215024"
"10","159990577194440","9.3943","0.995193","-1.04413","0","0","0","0.173926","-0.823225","0.540416","-0.136884","-0.563663","-0.814584","0.975199","0.0677024","-0.210722"
"10","159990594040143","9.45178","0.74614","-0.833389","0","0","0","0.170809","-0.833972","0.524704","-0.134853","-0.547306","-0.825997","0.976032","0.0703299","-0.205948"
"10","159990610855329","9.72","0.535385","-0.737595","0","0","0","0.174718","-0.806375","0.565007","-0.121338","-0.587092","-0.800375","0.977113","0.0712828","-0.20042"
"10","159990627578962","9.8158","0.669495","-1.21655","0","0","0","0.161713","-0.846129","0.507853","-0.127755","-0.528247","-0.839425","0.978533","0.0708653","-0.193522"
"10","159990644363630","10.0074","1.28256","-1.12076","0","0","0","0.164834","-0.819408","0.549","-0.116238","-0.568873","-0.814169","0.979448","0.0703878","-0.189016"
"10","159990661117780","10.199","1.39752","-1.1974","0","0","0","0.163843","-0.820255","0.54803","-0.112271","-0.567433","-0.81573","0.980077","0.0721239","-0.185061"
"10","159990677932966","10.3522","1.14845","-1.33151","0","0","0","0.172163","-0.775278","0.607704","-0.0943536","-0.627058","-0.773237","0.980539","0.0757839","-0.181106"
"10","159990694809186","10.199","0.669495","-1.33151","0","0","0","0.167579","-0.804909","0.569244","-0.0985126","-0.588191","-0.802699","0.980924","0.0784375","-0.177862"
"10","159990711502302","10.1415","0.382126","-1.15909","0","0","0","0.16963","-0.782615","0.598949","-0.0900749","-0.617525","-0.781377","0.981383","0.078595","-0.175245"
"10","159990728195417","10.1606","0.61203","-1.08244","0","0","0","0.166825","-0.776619","0.60748","-0.0869002","-0.625298","-0.775533","0.982149","0.0765882","-0.171804"
"10","159990745071638","10.2181","1.14845","-0.967499","0","0","0","0.162927","-0.781217","0.602623","-0.0863225","-0.619729","-0.780054","0.982855","0.0750718","-0.168407"
"10","159990761856305","10.4672","1.74237","-0.603485","0","0","0","0.167233","-0.731103","0.661454","-0.0700654","-0.678019","-0.731698","0.983425","0.0760187","-0.164612"
"10","159990778640973","10.6779","2.10637","-0.450226","0","0","0","0.168876","-0.70305","0.690798","-0.0564479","-0.706612","-0.705346","0.984019","0.0801221","-0.159016"
"10","159990795425641","10.5246","2.25964","-0.258636","0","0","0","0.16929","-0.692005","0.701762","-0.0448304","-0.716709","-0.69593","0.984546","0.0863538","-0.152355"
"10","159990812149274","10.2948","2.45122","-1.44646","0","0","0","0.166505","-0.732342","0.660266","-0.0442444","-0.674488","-0.736959","0.985047","0.0934943","-0.144708"
"10","159990828994977","11.3676","2.91103","-3.07491","0","0","0","0.172305","-0.674914","0.717497","-0.0231141","-0.730961","-0.682028","0.984772","0.100932","-0.141548"
"10","159990845810163","13.2068","3.02597","-4.85663","0","0","0","0.180317","-0.716874","0.673482","-0.0310667","-0.688514","-0.724557","0.983118","0.109727","-0.146422"
"10","159990862594831","13.954","2.85355","-4.91411","0","0","0","0.193416","-0.742558","0.641247","-0.0422206","-0.659282","-0.750709","0.980208","0.118125","-0.158867"
"10","159990879318464","12.6321","2.20216","-3.47723","0","0","0","0.200912","-0.808944","0.552489","-0.0714742","-0.574591","-0.815314","0.976998","0.124317","-0.173261"
"10","159990896072614","11.1377","1.24425","-2.73006","0","0","0","0.213472","-0.765861","0.606537","-0.0611139","-0.630101","-0.774105","0.975036","0.128182","-0.181314"
"10","159990912948835","9.68169","0.63118","-2.44269","0","0","0","0.214626","-0.779974","0.587858","-0.0688899","-0.612474","-0.787483","0.974264","0.128517","-0.185185"
"10","159990929764020","7.55511","0.918564","-3.64966","0","0","0","0.214519","-0.777132","0.591648","-0.0717515","-0.616652","-0.783959","0.974081","0.125722","-0.188044"
"10","159990946487653","7.7467","1.39752","-4.03282","0","0","0","0.21689","-0.778996","0.588323","-0.0788772","-0.614683","-0.78482","0.973004","0.123814","-0.194763"
"10","159990963211286","8.49387","1.78069","-3.97536","0","0","0","0.22117","-0.803759","0.552318","-0.0975525","-0.581736","-0.807506","0.970344","0.124716","-0.207071"
"10","159990980056989","9.31767","1.34004","-4.30104","0","0","0","0.235577","-0.768302","0.59516","-0.0918521","-0.627256","-0.773378","0.967505","0.127524","-0.218337"
"10","159990996872175","9.75832","0.113907","-4.49263","0","0","0","0.241511","-0.78092","0.576053","-0.104707","-0.61113","-0.784574","0.964732","0.129167","-0.229363"
"10","159991013595807","9.70084","-0.748215","-4.28189","0","0","0","0.22841","-0.852221","0.47069","-0.145925","-0.507977","-0.84892","0.962567","0.125216","-0.240387"
"10","159991030410993","9.29852","-0.958954","-3.8604","0","0","0","0.234611","-0.82099","0.520513","-0.145354","-0.559066","-0.816283","0.961161","0.115851","-0.250497"
"10","159991047134626","8.93451","-0.671585","-3.53471","0","0","0","0.224067","-0.841718","0.491228","-0.166094","-0.529651","-0.831795","0.960316","0.104788","-0.258481"
"10","159991063980329","8.93451","-0.211777","-3.30481","0","0","0","0.220077","-0.840204","0.495603","-0.175233","-0.533846","-0.827225","0.959614","0.0952068","-0.264719"
"10","159991080826032","9.1261","0.650345","-3.30481","0","0","0","0.208958","-0.862158","0.46154","-0.191509","-0.498897","-0.845237","0.958989","0.0882301","-0.26936"
"10","159991097519147","9.41347","0.976028","-3.32397","0","0","0","0.224549","-0.817501","0.530348","-0.177809","-0.569483","-0.802541","0.958103","0.0859093","-0.273237"
"10","159991114303815","9.52841","1.1293","-3.30481","0","0","0","0.214807","-0.851404","0.478508","-0.194357","-0.51741","-0.833374","0.957122","0.0860133","-0.276619"
"10","159991131088483","9.56674","1.16762","-3.22818","0","0","0","0.217068","-0.851548","0.477229","-0.196528","-0.516999","-0.83312","0.956168","0.0870549","-0.279577"
"10","159991147873151","9.52841","0.899399","-2.9408","0","0","0","0.212604","-0.868533","0.447717","-0.205271","-0.487666","-0.848555","0.955334","0.0885032","-0.281965"
"10","159991164962995","9.10693","0.516235","-3.09407","0","0","0","0.213313","-0.869757","0.444994","-0.20668","-0.485342","-0.849545","0.954872","0.0892479","-0.283291"
"10","159991181656110","8.99199","0.0947571","-2.90248","0","0","0","0.214773","-0.865306","0.4529","-0.206263","-0.493448","-0.844964","0.954635","0.0880587","-0.28446"
"10","159991197647321","9.0303","-0.250092","-2.78754","0","0","0","0.210385","-0.861779","0.461601","-0.210134","-0.500995","-0.839552","0.954768","0.0796309","-0.286491"
"10","159991214920270","9.04945","-0.384201","-2.69174","0","0","0","0.202255","-0.869103","0.45139","-0.215699","-0.48913","-0.845119","0.955284","0.0735645","-0.286394"
"10","159991231155622","8.78125","-0.115982","-2.40437","0","0","0","0.193239","-0.879532","0.434836","-0.221285","-0.470839","-0.854016","0.955872","0.068806","-0.285612"
"10","159991247940290","8.87703","-0.0010376","-2.28943","0","0","0","0.187169","-0.88489","0.42654","-0.223861","-0.461211","-0.858586","0.95648","0.0652152","-0.284417"
"10","159991264724958","9.3943","-0.288422","-2.2511","0","0","0","0.181599","-0.886404","0.425806","-0.224255","-0.458925","-0.859708","0.957461","0.0606326","-0.282121"
"10","159991281540143","9.06862","-0.135147","-2.21278","0","0","0","0.189694","-0.858713","0.476055","-0.213501","-0.509332","-0.833665","0.958349","0.0565029","-0.279953"
"10","159991298263776","8.81956","-0.0968323","-2.13615","0","0","0","0.168422","-0.896006","0.410861","-0.227212","-0.44088","-0.868332","0.959171","0.052894","-0.277837"
"10","159991315078962","8.87703","0.075592","-2.00204","0","0","0","0.171716","-0.882645","0.43755","-0.220843","-0.467333","-0.856054","0.960074","0.0503684","-0.275174"
"10","159991332412946","8.85788","0.133072","-2.21278","0","0","0","0.171348","-0.87767","0.447589","-0.217888","-0.476817","-0.851569","0.960815","0.0483903","-0.272936"
"10","159991349197614","8.76208","0.305496","-2.21278","0","0","0","0.183478","-0.844873","0.502519","-0.20571","-0.532878","-0.820807","0.961259","0.0472267","-0.271571"
"10","159991365432966","9.24104","-0.0010376","-1.90625","0","0","0","0.178476","-0.851025","0.493865","-0.206078","-0.523122","-0.826967","0.962122","0.0458185","-0.268742"
"10","159991382217634","9.8158","-0.345886","-1.6572","0","0","0","0.180333","-0.831052","0.526149","-0.197421","-0.554615","-0.808349","0.96359","0.0418991","-0.264082"
"10","159991399002302","10.0265","-0.326736","-1.5614","0","0","0","0.159898","-0.866862","0.472211","-0.205949","-0.497134","-0.842878","0.965411","0.0375229","-0.25802"
"10","159991415786970","10.1223","-0.230942","-1.96373","0","0","0","0.157716","-0.859215","0.486698","-0.20139","-0.510495","-0.835965","0.96673","0.0338288","-0.25355"
"10","159991432571638","10.0074","-0.154312","-2.09784","0","0","0","0.157922","-0.848747","0.504667","-0.197472","-0.527901","-0.82603","0.967505","0.0307909","-0.250971"
"10","159991449386823","9.91159","0.0372772","-1.48477","0","0","0","0.151488","-0.855368","0.495376","-0.196325","-0.517212","-0.833035","0.968766","0.0289401","-0.246281"
"10","159991466140973","10.1415","-0.0202026","-1.23572","0","0","0","0.12219","-0.912296","0.390878","-0.207923","-0.408619","-0.888706","0.970483","0.0273183","-0.239617"
"10","159991482925641","10.563","-0.154312","-1.38898","0","0","0","0.138981","-0.862167","0.487188","-0.188643","-0.506003","-0.84165","0.972161","0.0250689","-0.232967"
"10","159991499710309","10.9461","0.0947571","-1.6572","0","0","0","0.148422","-0.821524","0.550517","-0.17392","-0.56969","-0.803246","0.973511","0.0234732","-0.227434"
"10","159991516556013","10.5055","0.592865","-1.5614","0","0","0","0.148422","-0.821524","0.550517","-0.17392","-0.56969","-0.803246","0.973511","0.0234732","-0.227434"
"10","159991533310163","10.0265","0.248016","-1.59972","0","0","0","0.143081","-0.830407","0.538473","-0.168128","-0.556556","-0.81362","0.975326","0.0258817","-0.219247"
"10","159991550033796","10.1415","-0.326736","-1.48477","0","0","0","0.119276","-0.888652","0.442799","-0.181116","-0.457974","-0.87032","0.976202","0.0236102","-0.215575"
"10","159991566848981","10.4672","-0.403366","-1.48477","0","0","0","0.135203","-0.826302","0.546759","-0.164049","-0.562878","-0.810096","0.977143","0.0198323","-0.211656"
"10","159991583633649","11.0036","-0.0202026","-1.13992","0","0","0","0.131628","-0.822849","0.552806","-0.160067","-0.567982","-0.807326","0.978291","0.0177806","-0.206473"
"10","159991600418317","11.291","0.228867","-0.469391","0","0","0","0.109309","-0.878832","0.464441","-0.165131","-0.476804","-0.86336","0.980196","0.0176793","-0.197242"
"10","159991617233503","11.1186","-0.460846","-1.5614","0","0","0","0.104727","-0.878629","0.465878","-0.160726","-0.477249","-0.863945","0.981427","0.0155993","-0.191199"
"10","159991633987653","11.2718","-1.45708","-3.1707","0","0","0","0.106118","-0.859327","0.500297","-0.162153","-0.511358","-0.843931","0.981043","0.00843207","-0.193606"
"10","159991650772321","12.5746","-2.2234","-5.66129","0","0","0","0.105549","-0.850104","0.515928","-0.175433","-0.526607","-0.83181","0.978817","-0.00271385","-0.20472"
"10","159991667556989","12.2872","-1.78276","-6.6192","0","0","0","0.0941428","-0.882779","0.46026","-0.203714","-0.469613","-0.859049","0.974493","-0.0128882","-0.224045"
"10","159991684341657","10.8887","-1.18886","-5.62297","0","0","0","0.0898446","-0.896766","0.433289","-0.224579","-0.442085","-0.868404","0.970305","-0.0192864","-0.241114"
"10","159991701156843","9.68169","-0.460846","-4.32021","0","0","0","0.0898446","-0.896766","0.433289","-0.224579","-0.442085","-0.868404","0.970305","-0.0192864","-0.241114"
"10","159991717910993","8.12987","0.68866","-3.91788","0","0","0","0.0991051","-0.895329","0.43424","-0.241621","-0.44498","-0.862329","0.965297","-0.0194602","-0.26043"
"10","159991734695661","7.1911","1.45499","-4.12862","0","0","0","0.0813203","-0.940074","0.33113","-0.258546","-0.340754","-0.903903","0.96257","-0.0121065","-0.270762"
"10","159991751480329","7.47849","1.47415","-3.47723","0","0","0","0.0926664","-0.939343","0.330224","-0.263394","-0.342963","-0.901665","0.960227","-0.00342509","-0.279198"
"10","159991768264997","8.76208","0.956879","-3.11322","0","0","0","0.0887957","-0.952543","0.291167","-0.268649","-0.304391","-0.913878","0.959137","0.00292683","-0.282928"
"10","159991785049665","10.1606","0.458755","-3.4964","0","0","0","0.0920043","-0.952921","0.288925","-0.26977","-0.303157","-0.913958","0.958519","0.006145","-0.284961"
"10","159991801834333","10.9461","0.171387","-4.60757","0","0","0","0.0875832","-0.960101","0.265586","-0.277123","-0.27957","-0.919263","0.956834","0.00691201","-0.290551"
"10","159991818619001","10.1798","0.0372772","-4.51178","0","0","0","0.087445","-0.962223","0.257838","-0.284571","-0.272172","-0.919207","0.954658","0.00700698","-0.297621"
"10","159991835403669","9.41347","-0.326736","-3.95619","0","0","0","0.0871445","-0.962778","0.25586","-0.290925","-0.270236","-0.917788","0.952769","0.00554413","-0.303646"
"10","159991852188337","8.53218","-0.345886","-3.34312","0","0","0","0.0782047","-0.969443","0.232516","-0.29703","-0.245296","-0.922823","0.95166","0.00310491","-0.307137"
"10","159991869003522","8.1107","0.0372772","-2.59595","0","0","0","0.0825893","-0.965471","0.247071","-0.297074","-0.260498","-0.918634","0.951276","0.0024709","-0.308331"
"10","159991885757673","7.95744","0.439606","-2.15532","0","0","0","0.105044","-0.943988","0.312814","-0.288523","-0.329953","-0.898824","0.951693","0.00416191","-0.307022"
"10","159991902542341","8.34061","0.248016","-2.34689","0","0","0","0.0938219","-0.957094","0.274167","-0.290381","-0.289715","-0.912","0.9523","0.00595257","-0.305104"
"10","159991919327009","9.0303","-0.556625","-2.65343","0","0","0","0.0963681","-0.95222","0.289812","-0.287855","-0.305387","-0.907677","0.952813","0.00404722","-0.303531"
"10","159991936111677","9.43263","-0.920639","-2.69174","0","0","0","0.0931257","-0.950581","0.296183","-0.28774","-0.310477","-0.905986","0.95317","-0.000853011","-0.302433"
"10","159991952926862","9.26021","-0.59494","-2.50017","0","0","0","0.0952969","-0.943455","0.317508","-0.285067","-0.331466","-0.899371","0.953759","-0.00480364","-0.300535"
"10","159991969681013","8.97282","0.0372772","-2.11699","0","0","0","0.120565","-0.906867","0.403803","-0.272166","-0.421381","-0.86508","0.954667","-0.00560313","-0.297622"
"10","159991986465680","8.97282","0.765289","-1.79131","0","0","0","0.11226","-0.920996","0.373048","-0.27111","-0.389566","-0.880192","0.95598","-0.00232661","-0.293424"
"10","159992003280866","8.72377","1.20593","-1.79131","0","0","0","0.112882","-0.92531","0.36202","-0.265742","-0.379191","-0.886338","0.957413","0.00384801","-0.288698"
"10","159992020035016","8.24481","1.34004","-1.96373","0","0","0","0.127151","-0.903346","0.409631","-0.259218","-0.428894","-0.865364","0.957413","0.00384801","-0.288698"
"10","159992037369001","8.12987","1.30173","-1.77214","0","0","0","0.122441","-0.926144","0.356742","-0.255064","-0.376738","-0.890512","0.95914","0.0180431","-0.282355"
"10","159992053604352","8.58966","1.11014","-1.46562","0","0","0","0.126462","-0.925351","0.357397","-0.248142","-0.378345","-0.891785","0.960434","0.0240917","-0.277465"
"10","159992070389020","9.22188","1.03351","-1.33151","0","0","0","0.126371","-0.928043","0.35038","-0.241065","-0.371354","-0.896652","0.962246","0.0288468","-0.270647"
"10","159992087173688","9.66252","0.516235","-1.50394","0","0","0","0.125534","-0.92907","0.347952","-0.234862","-0.368587","-0.899435","0.963888","0.0311889","-0.264474"
"10","159992103958356","9.77748","-0.173462","-1.23572","0","0","0","0.124724","-0.923966","0.361567","-0.227126","-0.381324","-0.896106","0.965846","0.0296448","-0.257417"
"10","159992121292341","9.85411","-0.479996","-0.910019","0","0","0","0.128107","-0.905114","0.405411","-0.215005","-0.424403","-0.879577","0.968174","0.0255149","-0.248973"
"10","159992138077009","9.72","-0.211777","-1.06329","0","0","0","0.119549","-0.909547","0.398036","-0.210143","-0.41501","-0.885216","0.970334","0.0221824","-0.240748"
"10","159992154312360","9.60506","0.267181","-1.35066","0","0","0","0.112418","-0.917904","0.380545","-0.207472","-0.396215","-0.89441","0.97176","0.0215953","-0.234981"
"10","159992171097028","9.64337","0.55455","-1.1974","0","0","0","0.12595","-0.886881","0.444498","-0.192977","-0.461411","-0.865945","0.973086","0.0232878","-0.229262"
"10","159992187881696","10.1606","0.516235","-1.17824","0","0","0","0.132738","-0.865218","0.483506","-0.180591","-0.500769","-0.846532","0.97456","0.0250504","-0.222721"
"10","159992204666364","11.1186","0.765289","-1.00581","0","0","0","0.106565","-0.924443","0.366128","-0.189028","-0.380345","-0.905321","0.976172","0.0272671","-0.215277"
"10","159992221451032","11.54","0.841919","-0.0670624","0","0","0","0.110408","-0.91271","0.393408","-0.174136","-0.40747","-0.896462","0.978512","0.03047","-0.203924"
"10","159992238235700","11.4826","0.0372772","-0.124527","0","0","0","0.119916","-0.872149","0.474316","-0.152854","-0.488287","-0.859192","0.980946","0.0305298","-0.191865"
"10","159992255020368","11.8274","-0.441681","-0.948334","0","0","0","0.132144","-0.791876","0.596213","-0.128676","-0.610102","-0.781804","0.982843","0.0265924","-0.182517"
"10","159992271805036","12.5363","0.171387","-3.18987","0","0","0","0.119551","-0.838726","0.531269","-0.140754","-0.54402","-0.827182","0.9828","0.0241123","-0.183093"
"10","159992288589704","13.3792","2.14468","-7.09814","0","0","0","0.141861","-0.808384","0.571306","-0.145341","-0.587897","-0.795772","0.979158","0.0298545","-0.200891"
"10","159992305374372","14.1264","3.92641","-8.03691","0","0","0","0.165825","-0.818991","0.549324","-0.160184","-0.572008","-0.804455","0.973059","0.0454061","-0.226043"
"10","159992322159040","12.2489","3.73483","-7.40468","0","0","0","0.153321","-0.916939","0.368396","-0.205087","-0.394213","-0.895844","0.96666","0.0617982","-0.248493"
"10","159992338943708","9.68169","3.3325","-5.79539","0","0","0","0.153321","-0.916939","0.368396","-0.205087","-0.394213","-0.895844","0.96666","0.0617982","-0.248493"
"10","159992355728376","7.76585","2.45122","-4.12862","0","0","0","0.184359","-0.917851","0.351514","-0.223386","-0.387414","-0.894432","0.957137","0.0863739","-0.276458"
"10","159992372513044","6.53972","-0.115982","-3.36229","0","0","0","0.185493","-0.920287","0.344477","-0.231288","-0.381601","-0.894923","0.955038","0.0863287","-0.283635"
"10","159992389297712","7.55511","-1.78276","-3.38144","0","0","0","0.18556","-0.909379","0.372286","-0.235554","-0.408985","-0.881615","0.953982","0.0758992","-0.290099"
"10","159992406234968","8.95367","-1.89771","-3.59218","0","0","0","0.178902","-0.903724","0.388943","-0.242793","-0.423647","-0.872682","0.953439","0.061692","-0.29521"
"10","159992423446882","10.0265","-0.614105","-3.84125","0","0","0","0.173001","-0.903278","0.392632","-0.249613","-0.425839","-0.869687","0.952766","0.0524507","-0.29914"
"10","159992439712751","10.1415","0.55455","-4.01367","0","0","0","0.176662","-0.896978","0.405243","-0.251511","-0.439189","-0.862471","0.951595","0.0504426","-0.303188"
"10","159992456497419","9.35599","0.74614","-3.74545","0","0","0","0.169137","-0.913525","0.369954","-0.261287","-0.403491","-0.876883","0.950327","0.0516491","-0.306938"
"10","159992473251569","8.91536","0.535385","-3.68797","0","0","0","0.145839","-0.946785","0.28693","-0.279021","-0.317621","-0.906236","0.949146","0.0521053","-0.310495"
"10","159992490036237","8.41724","0.726974","-3.38144","0","0","0","0.155377","-0.937556","0.311202","-0.277659","-0.343776","-0.897064","0.948031","0.0529751","-0.313736"
"10","159992506820905","8.2065","0.937714","-2.51932","0","0","0","0.155377","-0.937556","0.311202","-0.277659","-0.343776","-0.897064","0.948031","0.0529751","-0.313736"
"10","159992523636091","8.41724","0.420441","-2.46185","0","0","0","0.141795","-0.955482","0.258745","-0.284443","-0.28969","-0.913877","0.948149","0.0559849","-0.312856"
"10","159992540420759","8.83871","-0.0776672","-3.05576","0","0","0","0.150665","-0.943801","0.294177","-0.280004","-0.326129","-0.902905","0.948102","0.0536654","-0.313405"
"10","159992557174909","9.47095","-0.154312","-3.26649","0","0","0","0.159617","-0.92891","0.33414","-0.2754","-0.366942","-0.888543","0.947986","0.0498041","-0.314392"
"10","159992573990095","9.68169","0.152222","-3.11322","0","0","0","0.152419","-0.935488","0.318796","-0.278999","-0.350173","-0.894169","0.948118","0.0473442","-0.314373"
"10","159992590744245","9.10693","0.49707","-2.97913","0","0","0","0.154886","-0.931602","0.328829","-0.277259","-0.360458","-0.890616","0.948229","0.0467729","-0.314125"
"10","159992607528913","8.62798","0.420441","-2.5768","0","0","0","0.145872","-0.942609","0.300348","-0.281182","-0.330578","-0.900919","0.948503","0.0469662","-0.313267"
"10","159992624344098","8.55135","-0.0968323","-2.38521","0","0","0","0.14044","-0.946414","0.290821","-0.281606","-0.319783","-0.904675","0.949197","0.0451559","-0.311426"
"10","159992641098249","9.0303","-0.690735","-2.13615","0","0","0","0.144245","-0.934888","0.324312","-0.274925","-0.352698","-0.894439","0.950584","0.0398571","-0.307899"
"10","159992657913434","9.62421","-1.32297","-2.00204","0","0","0","0.133113","-0.936673","0.323922","-0.273514","-0.348856","-0.896376","0.952613","0.0307219","-0.302631"
"10","159992675216901","9.16441","-0.805695","-2.07867","0","0","0","0.126309","-0.935275","0.330616","-0.271191","-0.353146","-0.895401","0.954202","0.0234371","-0.298244"
"10","159992691452253","8.74294","-0.0968323","-2.09784","0","0","0","0.121698","-0.936381","0.329212","-0.269558","-0.350391","-0.896976","0.955263","0.0204189","-0.295051"
"10","159992708236921","8.51303","0.305496","-2.09784","0","0","0","0.135948","-0.91473","0.380508","-0.259715","-0.403547","-0.877324","0.956068","0.0204464","-0.292431"
"10","159992725052106","8.47472","0.477921","-1.90625","0","0","0","0.114903","-0.944171","0.308768","-0.266374","-0.328728","-0.906081","0.956996","0.0218636","-0.289275"
"10","159992741806257","8.78125","0.305496","-1.61888","0","0","0","0.114714","-0.943714","0.310234","-0.261481","-0.329968","-0.907055","0.958367","0.0229316","-0.284616"
"10","159992758621442","9.47095","0.0181122","-1.38898","0","0","0","0.11268","-0.942929","0.31335","-0.255221","-0.332244","-0.908007","0.960294","0.022341","-0.278093"
"10","159992775375593","10.084","-0.269257","-1.12076","0","0","0","0.106204","-0.944812","0.309921","-0.248127","-0.327006","-0.911866","0.962888","0.0199444","-0.269163"
"10","159992792190778","10.3139","-0.422516","-1.96373","0","0","0","0.11311","-0.926954","0.357719","-0.236893","-0.374806","-0.896327","0.964929","0.0166422","-0.261983"
"10","159992808975446","10.2948","-0.211777","-2.88333","0","0","0","0.10882","-0.929139","0.353354","-0.237669","-0.369474","-0.898333","0.965231","0.0137758","-0.261033"
"10","159992825729596","10.1606","0.61203","-2.67259","0","0","0","0.1298","-0.894137","0.428568","-0.22759","-0.447551","-0.864813","0.965067","0.0147146","-0.261588"
"10","159992842514264","9.77748","1.03351","-1.79131","0","0","0","0.0956743","-0.953255","0.286622","-0.240948","-0.301558","-0.9225","0.965811","0.0191984","-0.258536"
"10","159992859329450","10.3331","0.477921","-1.33151","0","0","0","0.105775","-0.940464","0.323015","-0.229789","-0.339163","-0.912231","0.967475","0.0222662","-0.251984"
"10","159992876114118","11.4634","-0.403366","-1.58057","0","0","0","0.112651","-0.921875","0.37075","-0.218118","-0.386967","-0.895925","0.969399","0.0200595","-0.24467"
"10","159992892868268","12.2106","-0.115982","-1.58057","0","0","0","0.109523","-0.917659","0.381976","-0.211472","-0.397002","-0.893123","0.971228","0.0170397","-0.23754"
"10","159992909652936","12.2297","0.592865","-0.81424","0","0","0","0.0841391","-0.95504","0.284286","-0.212041","-0.295924","-0.931379","0.973632","0.0180851","-0.227407"
"10","159992926437604","11.5784","0.0181122","-1.42729","0","0","0","0.0999729","-0.924694","0.36735","-0.195405","-0.380257","-0.904003","0.975614","0.0185939","-0.218705"
"10","159992943252790","12.2872","-1.36128","-5.14401","0","0","0","0.0824574","-0.949187","0.303718","-0.211536","-0.314481","-0.925394","0.973886","0.0120583","-0.226719"
"10","159992960037458","13.3409","-2.28088","-6.69583","0","0","0","0.0830265","-0.940537","0.329387","-0.228055","-0.33969","-0.91247","0.970102","0.000640814","-0.242697"
"10","159992976852643","12.5554","-2.64488","-7.11731","0","0","0","0.0761756","-0.941782","0.32748","-0.250246","-0.33598","-0.908017","0.965181","-0.012782","-0.261271"
"10","159992993637311","10.2756","-1.97435","-5.73792","0","0","0","0.0801656","-0.931033","0.35602","-0.266668","-0.364182","-0.892334","0.960449","-0.0234046","-0.277472"
"10","159993010391462","8.87703","-0.920639","-3.99451","0","0","0","0.0722892","-0.938752","0.336927","-0.278197","-0.343382","-0.897048","0.9578","-0.0288851","-0.285981"
"10","159993027145612","7.93828","0.516235","-3.20901","0","0","0","0.0780518","-0.935225","0.345343","-0.28132","-0.352984","-0.892335","0.956435","-0.0275034","-0.290648"
"10","159993043960798","7.05699","1.56995","-3.11322","0","0","0","0.071172","-0.953212","0.293805","-0.287095","-0.301664","-0.909162","0.955255","-0.019643","-0.295132"
"10","159993060745466","7.49763","1.74237","-3.20901","0","0","0","0.0652943","-0.968921","0.238598","-0.292607","-0.247189","-0.923731","0.954001","-0.0095012","-0.299653"
"10","159993077499616","9.93074","0.822769","-3.30481","0","0","0","0.0562396","-0.981186","0.184692","-0.296881","-0.193052","-0.935197","0.953257","-0.00223633","-0.302153"
"10","159993094284284","11.176","0.286331","-4.0903","0","0","0","0.0727163","-0.971013","0.227698","-0.295073","-0.239027","-0.925094","0.952704","8.19373e-05","-0.303901"
"10","159993111099470","11.0611","0.477921","-4.83748","0","0","0","0.0679559","-0.97695","0.202362","-0.301618","-0.213457","-0.929227","0.951004","0.00211035","-0.309171"
"10","159993127884138","10.0074","0.918564","-4.83748","0","0","0","0.0584624","-0.986008","0.15611","-0.311226","-0.166586","-0.935622","0.948536","0.00611325","-0.31661"
"10","159993144638288","8.83871","1.07182","-3.70714","0","0","0","0.075753","-0.979165","0.188406","-0.312742","-0.202746","-0.927948","0.946813","0.0113723","-0.321585"
"10","159993161453473","7.86165","0.880249","-3.01744","0","0","0","0.0670718","-0.98682","0.147266","-0.317199","-0.161031","-0.934588","0.945984","0.0159718","-0.323819"
"10","159993178207624","7.70837","0.343811","-2.36606","0","0","0","0.0540129","-0.993239","0.102754","-0.319397","-0.114683","-0.940656","0.94608","0.0179881","-0.323432"
"10","159993194992292","8.1107","-0.230942","-2.30858","0","0","0","0.0644188","-0.988393","0.137585","-0.315305","-0.150968","-0.936905","0.946802","0.0169731","-0.32137"
"10","159993211776960","8.49387","-0.307571","-2.481","0","0","0","0.0635927","-0.987479","0.144363","-0.313161","-0.157094","-0.936617","0.947568","0.0143533","-0.31923"
"10","159993228561628","8.53218","0.267181","-2.28943","0","0","0","0.0630947","-0.987485","0.144546","-0.3108","-0.157074","-0.937407","0.948379","0.0142206","-0.316821"
"10","159993245376813","8.45555","0.68866","-2.05952","0","0","0","0.0800546","-0.978193","0.191651","-0.302949","-0.20705","-0.930243","0.949638","0.0164096","-0.312918"
"10","159993262161481","8.41724","0.937714","-2.15532","0","0","0","0.0783766","-0.981376","0.175382","-0.300259","-0.190992","-0.934541","0.950632","0.0205863","-0.309636"
"10","159993278946149","8.22565","0.899399","-2.42352","0","0","0","0.10741","-0.961165","0.254214","-0.289635","-0.274853","-0.916824","0.951091","0.0248466","-0.307909"
"10","159993295730817","8.4364","0.61203","-2.44269","0","0","0","0.1055","-0.964967","0.240227","-0.289273","-0.260909","-0.921004","0.951415","0.0276743","-0.306665"
"10","159993312515485","8.5705","0.61203","-2.21278","0","0","0","0.103664","-0.967622","0.230135","-0.287716","-0.250663","-0.924331","0.952089","0.0296068","-0.304385"
"10","159993329300153","8.5705","1.03351","-1.67636","0","0","0","0.103831","-0.96933","0.222753","-0.283382","-0.243513","-0.927575","0.95337","0.0331865","-0.299975"
"10","159993346084821","8.87703","1.14845","-1.42729","0","0","0","0.0942648","-0.979002","0.180744","-0.280011","-0.200296","-0.938869","0.955357","0.037892","-0.293013"
"10","159993362869489","9.24104","0.956879","-1.58057","0","0","0","0.105732","-0.971703","0.211218","-0.269172","-0.232447","-0.93462","0.957271","0.0419655","-0.286132"
"10","159993379654157","9.73917","0.458755","-1.59972","0","0","0","0.0979259","-0.977939","0.184516","-0.265395","-0.204354","-0.942234","0.959154","0.0432995","-0.279552"
"10","159993396438825","10.0648","-0.0968323","-1.40814","0","0","0","0.120238","-0.952319","0.280412","-0.24764","-0.302304","-0.920482","0.961362","0.0412353","-0.272181"
"10","159993413223493","10.084","-0.365051","-1.08244","0","0","0","0.104492","-0.96349","0.24651","-0.244795","-0.265159","-0.932612","0.963928","0.0371057","-0.263565"
"10","159993430008161","9.89243","-0.135147","-0.890869","0","0","0","0.094974","-0.96789","0.232744","-0.238165","-0.249103","-0.938736","0.96657","0.0337239","-0.254176"
"10","159993446792829","9.89243","0.0947571","-1.2932","0","0","0","0.0912469","-0.968142","0.233183","-0.230992","-0.24835","-0.940726","0.968667","0.0319748","-0.246295"
"10","159993463608014","10.5055","0.0372772","-1.38898","0","0","0","0.0900068","-0.966361","0.240926","-0.224306","-0.255362","-0.940466","0.970353","0.0306073","-0.239744"
"10","159993480362165","11.5017","-0.0776672","-1.46562","0","0","0","0.100778","-0.946941","0.305201","-0.212037","-0.320157","-0.923331","0.972051","0.0283374","-0.233052"
"10","159993497177350","12.1339","0.171387","-1.15909","0","0","0","0.103823","-0.934989","0.33914","-0.200823","-0.353667","-0.913559","0.97411","0.0267413","-0.224486"
"10","159993514511335","12.5171","0.324646","-1.73383","0","0","0","0.106006","-0.92583","0.362769","-0.191002","-0.37699","-0.90631","0.975849","0.0267845","-0.216798"
"10","159993531265485","13.9157","0.171387","-3.13239","0","0","0","0.105119","-0.925142","0.364776","-0.189865","-0.378732","-0.905822","0.976167","0.0259605","-0.215464"
"10","159993548050153","15.5058","1.05267","-5.62297","0","0","0","0.108426","-0.926507","0.360318","-0.196706","-0.375283","-0.905798","0.974449","0.0273353","-0.222939"
"10","159993564804304","15.1418","2.89186","-5.83371","0","0","0","0.115488","-0.936302","0.331663","-0.207711","-0.349279","-0.913707","0.971349","0.0366323","-0.234818"
"10","159993581650007","11.5592","4.0222","-4.74168","0","0","0","0.113431","-0.963745","0.241513","-0.222355","-0.26154","-0.939231","0.968345","0.0528361","-0.24396"
"10","159993598434675","8.72377","3.38998","-4.6842","0","0","0","0.151026","-0.935611","0.319099","-0.216361","-0.34626","-0.912848","0.964562","0.0688235","-0.254724"
"10","159993615188825","7.15279","1.95311","-3.78377","0","0","0","0.157488","-0.942529","0.294682","-0.225849","-0.324874","-0.918395","0.961348","0.0780822","-0.264033"
"10","159993632004011","6.44394","0.899399","-3.38144","0","0","0","0.162392","-0.943153","0.289984","-0.232976","-0.322224","-0.917548","0.958828","0.0814431","-0.272059"
"10","159993648727643","6.96121","-0.365051","-3.74545","0","0","0","0.158469","-0.948698","0.273607","-0.244271","-0.306163","-0.920106","0.956671","0.0789742","-0.280257"
"10","159993665542829","8.07239","-0.63327","-3.95619","0","0","0","0.146254","-0.958759","0.243704","-0.259142","-0.274882","-0.925897","0.954701","0.0722625","-0.288658"
"10","159993682327497","9.20273","-0.288422","-4.07114","0","0","0","0.156661","-0.942898","0.29394","-0.25934","-0.326443","-0.908943","0.952995","0.0661658","-0.295672"
"10","159993699112165","10.1032","0.420441","-4.60757","0","0","0","0.144103","-0.956786","0.252577","-0.273684","-0.28382","-0.91899","0.950963","0.0633028","-0.302756"
"10","159993715927350","10.3714","1.03351","-4.32021","0","0","0","0.151512","-0.951212","0.268776","-0.276402","-0.301838","-0.912412","0.949024","0.0639509","-0.308649"
"10","159993732681501","9.8158","1.20593","-3.72629","0","0","0","0.161161","-0.943653","0.289045","-0.274738","-0.324193","-0.905217","0.947917","0.0664742","-0.311505"
"10","159993749466169","9.20273","1.28256","-4.05199","0","0","0","0.165612","-0.943049","0.288499","-0.277521","-0.325283","-0.903976","0.946337","0.0696449","-0.315587"
"10","159993766281354","8.64714","1.37836","-4.03282","0","0","0","0.152165","-0.961738","0.22783","-0.291994","-0.263969","-0.919272","0.944238","0.0733564","-0.320988"
"10","159993783004987","8.47472","1.2251","-3.4006","0","0","0","0.164754","-0.953101","0.253879","-0.289646","-0.292799","-0.911249","0.942847","0.0765966","-0.324301"
"10","159993799820173","8.34061","0.784454","-2.78754","0","0","0","0.141445","-0.973906","0.177485","-0.302566","-0.213239","-0.928969","0.942575","0.0776971","-0.324833"
"10","159993816574323","8.64714","0.477921","-2.40437","0","0","0","0.127295","-0.982281","0.137552","-0.306379","-0.170838","-0.936454","0.94336","0.0770627","-0.322697"
"10","159993833420026","8.62798","0.458755","-2.34689","0","0","0","0.12856","-0.980752","0.146961","-0.302911","-0.179943","-0.935877","0.944308","0.0758003","-0.320214"
"10","159993850204694","8.8004","0.0372772","-2.19363","0","0","0","0.140835","-0.970335","0.19651","-0.293084","-0.230454","-0.927897","0.945657","0.0730868","-0.316846"
"10","159993866989362","8.74294","-0.250092","-2.27026","0","0","0","0.134772","-0.971456","0.195215","-0.291196","-0.227143","-0.929307","0.947123","0.0683986","-0.313497"
"10","159993883774030","8.85788","-0.0968323","-2.28943","0","0","0","0.137724","-0.965351","0.221651","-0.285653","-0.252987","-0.924337","0.948385","0.0639884","-0.310598"
"10","159993900528180","8.76208","-0.0585175","-1.98289","0","0","0","0.123612","-0.97368","0.191487","-0.28675","-0.219783","-0.932453","0.949997","0.0603536","-0.306371"
"10","159993917312848","8.62798","-0.0010376","-2.21278","0","0","0","0.114958","-0.977586","0.176381","-0.286161","-0.202621","-0.936513","0.951261","0.0571868","-0.30304"
"10","159993934128034","8.58966","0.113907","-2.15532","0","0","0","0.120047","-0.97168","0.203537","-0.280521","-0.229865","-0.931917","0.952311","0.054777","-0.300171"
"10","159993950882184","8.53218","0.133072","-2.09784","0","0","0","0.111655","-0.976393","0.184904","-0.280747","-0.209481","-0.936642","0.953265","0.0526694","-0.297509"
"10","159993967697370","8.83871","0.0372772","-1.77214","0","0","0","0.111996","-0.973953","0.19716","-0.275683","-0.221073","-0.935482","0.954702","0.0504164","-0.293262"
"10","159993984421003","9.27936","-0.0968323","-1.82962","0","0","0","0.116664","-0.966603","0.228183","-0.267764","-0.251856","-0.929984","0.956395","0.0473963","-0.288204"
"10","159994001236188","9.54758","-0.0202026","-1.67636","0","0","0","0.106097","-0.972517","0.207255","-0.265707","-0.22858","-0.936563","0.958198","0.0442974","-0.282656"
"10","159994018051374","9.83495","-0.211777","-1.59972","0","0","0","0.114903","-0.95971","0.256424","-0.254473","-0.277958","-0.926274","0.96023","0.0411784","-0.276158"
"10","159994034775007","9.83495","-0.499161","-1.61888","0","0","0","0.0999751","-0.96905","0.225715","-0.253138","-0.244159","-0.936113","0.962251","0.036451","-0.269713"
"10","159994051071393","10.1223","-0.63327","-1.84879","0","0","0","0.0985776","-0.963882","0.247414","-0.246825","-0.264538","-0.932254","0.964033","0.0308314","-0.263988"
"10","159994068374860","10.5821","-0.422516","-2.44269","0","0","0","0.0983041","-0.958374","0.268059","-0.242878","-0.284323","-0.927454","0.965063","0.0260669","-0.260718"
"10","159994085190046","10.9078","0.439606","-2.2511","0","0","0","0.0872923","-0.96906","0.230873","-0.243824","-0.245492","-0.938234","0.965883","0.0256084","-0.257709"
"10","159994101944196","10.5246","0.61203","-1.84879","0","0","0","0.0965177","-0.959829","0.263462","-0.235953","-0.279217","-0.930787","0.966959","0.0276727","-0.253424"
"10","159994118698346","10.7929","-0.422516","-1.96373","0","0","0","0.0866953","-0.967623","0.237046","-0.234555","-0.251078","-0.939119","0.968229","0.0258169","-0.248728"
"10","159994135574567","11.4826","-1.11221","-1.77214","0","0","0","0.0807982","-0.965781","0.24645","-0.230904","-0.258669","-0.937962","0.969616","0.0188793","-0.243903"
"10","159994152267682","11.8274","-0.805695","-1.27403","0","0","0","0.0804687","-0.956312","0.281056","-0.222391","-0.292088","-0.930176","0.971631","0.0123458","-0.236179"
"10","159994169082868","12.2872","-0.384201","-1.67636","0","0","0","0.068476","-0.964456","0.255216","-0.217933","-0.264098","-0.939552","0.973558","0.00871668","-0.228272"
"10","159994185837018","12.6895","-0.115982","-3.28566","0","0","0","0.0743496","-0.954178","0.289855","-0.214828","-0.29916","-0.929706","0.973818","0.00685441","-0.227226"
"10","159994202652204","13.2834","-0.499161","-4.76083","0","0","0","0.0662185","-0.964631","0.255152","-0.22386","-0.263557","-0.938309","0.972369","0.00501514","-0.233394"
"10","159994219467389","12.0765","-1.91687","-6.23602","0","0","0","0.064367","-0.961657","0.266596","-0.237124","-0.274237","-0.931969","0.969345","-0.00322818","-0.245683"
"10","159994236252057","9.75832","-1.15054","-4.74168","0","0","0","0.0772129","-0.94241","0.325425","-0.247157","-0.334304","-0.90948","0.965894","-0.0102076","-0.258736"
"10","159994253006208","8.22565","-0.499161","-3.89871","0","0","0","0.0662603","-0.955745","0.286637","-0.259536","-0.293888","-0.91993","0.963458","-0.0134378","-0.267524"
"10","159994269821393","7.57426","0.305496","-3.30481","0","0","0","0.0646835","-0.96037","0.27112","-0.26685","-0.278441","-0.922638","0.961565","-0.0126688","-0.274285"
"10","159994286575544","7.78502","0.822769","-3.22818","0","0","0","0.0593624","-0.970478","0.233772","-0.273049","-0.24104","-0.931313","0.960167","-0.00854627","-0.279296"
"10","159994303390729","8.85788","0.976028","-3.55386","0","0","0","0.0537586","-0.979904","0.192088","-0.279166","-0.199444","-0.939302","0.958737","-0.00312883","-0.284278"
"10","159994320175397","9.66252","0.861084","-3.87956","0","0","0","0.071848","-0.97016","0.231575","-0.27991","-0.242457","-0.928905","0.957334","0.00191977","-0.288978"
"10","159994336929548","10.4672","0.420441","-4.12862","0","0","0","0.0731687","-0.972316","0.221921","-0.284564","-0.233621","-0.929755","0.955861","0.00487829","-0.29378"
"10","159994353714216","10.6204","0.382126","-4.30104","0","0","0","0.0747521","-0.973137","0.217754","-0.289216","-0.230136","-0.929189","0.954341","0.0064807","-0.29865"
"10","159994370498884","9.37515","1.1293","-3.97536","0","0","0","0.0857122","-0.968624","0.233285","-0.291396","-0.24828","-0.923821","0.952755","0.0112044","-0.303534"
"10","159994387314069","8.74294","1.24425","-3.53471","0","0","0","0.0779663","-0.979366","0.186448","-0.298372","-0.201368","-0.932966","0.95126","0.0171091","-0.307915"
"10","159994404068220","8.07239","1.11014","-3.07491","0","0","0","0.0916151","-0.973513","0.209472","-0.297702","-0.227512","-0.927152","0.950253","0.0225809","-0.310661"
"10","159994420852888","7.65091","0.49707","-2.59595","0","0","0","0.103486","-0.966277","0.235796","-0.295324","-0.256229","-0.920397","0.949776","0.0256124","-0.311881"
"10","159994437668073","7.8808","-0.135147","-2.40437","0","0","0","0.0798667","-0.98296","0.165563","-0.302392","-0.182158","-0.935616","0.949832","0.0246597","-0.311787"
"10","159994454452741","8.2065","-0.403366","-2.05952","0","0","0","0.0814953","-0.97979","0.182677","-0.298712","-0.198872","-0.933392","0.950857","0.0214993","-0.308882"
"10","159994471237409","8.53218","-0.288422","-1.82962","0","0","0","0.101057","-0.961091","0.257084","-0.287853","-0.275601","-0.917161","0.952328","0.0186836","-0.304504"
"10","159994487991559","8.39807","0.190536","-1.96373","0","0","0","0.0879232","-0.971202","0.221441","-0.287942","-0.237591","-0.927707","0.953603","0.0178049","-0.300539"
"10","159994504806745","8.1107","1.37836","-1.92542","0","0","0","0.0901737","-0.971758","0.218073","-0.283992","-0.234963","-0.929592","0.954577","0.0218939","-0.297159"
"10","159994521591413","8.28313","1.68489","-1.84879","0","0","0","0.104077","-0.965207","0.239883","-0.276219","-0.259756","-0.925327","0.955443","0.0300449","-0.293643"
"10","159994537796247","8.39807","1.60826","-1.71468","0","0","0","0.112124","-0.963227","0.244176","-0.269106","-0.265977","-0.925656","0.956562","0.0380787","-0.289032"
"10","159994555160749","8.5705","1.55078","-1.86794","0","0","0","0.128626","-0.951207","0.280466","-0.258842","-0.305214","-0.916431","0.957317","0.0452805","-0.285471"
"10","159994571884382","8.99199","1.60826","-1.8871","0","0","0","0.119534","-0.966311","0.227934","-0.260284","-0.252051","-0.932053","0.958104","0.0520841","-0.281644"
"10","159994588699567","9.33684","1.43584","-1.69551","0","0","0","0.128893","-0.960772","0.245567","-0.251498","-0.271207","-0.929083","0.959237","0.0579934","-0.276589"
"10","159994605514753","9.50926","0.995193","-1.23572","0","0","0","0.127419","-0.963788","0.234258","-0.245264","-0.259466","-0.934089","0.961046","0.0615658","-0.269444"
"10","159994621750104","9.73917","0.267181","-0.546021","0","0","0","0.129056","-0.958568","0.253953","-0.232803","-0.278225","-0.931876","0.963923","0.0611435","-0.259064"
"10","159994639084089","9.91159","-0.192627","-0.469391","0","0","0","0.115748","-0.966578","0.228756","-0.225525","-0.249863","-0.941651","0.967337","0.0574036","-0.246908"
"10","159994655838239","10.084","-0.0202026","-1.08244","0","0","0","0.11633","-0.958975","0.258525","-0.214775","-0.278422","-0.936137","0.969711","0.0533762","-0.238352"
"10","159994672653425","9.64337","0.305496","-1.46562","0","0","0","0.126653","-0.938812","0.320298","-0.20184","-0.340534","-0.918312","0.971195","0.0516585","-0.232619"
"10","159994689407575","9.43263","0.324646","-2.00204","0","0","0","0.127502","-0.93471","0.331752","-0.198577","-0.351767","-0.914782","0.971756","0.0507576","-0.230463"
"10","159994706192243","10.448","0.113907","-1.84879","0","0","0","0.116361","-0.948981","0.293078","-0.202115","-0.311533","-0.928492","0.972425","0.0488051","-0.228054"
"10","159994723007429","11.9041","0.267181","-1.46562","0","0","0","0.117177","-0.941683","0.315442","-0.194731","-0.33325","-0.92251","0.973832","0.0466705","-0.222424"
"10","159994739761579","12.5171","0.61203","-0.75676","0","0","0","0.126897","-0.914784","0.383493","-0.176832","-0.401288","-0.898721","0.976027","0.0462309","-0.212685"
"10","159994756576764","12.6512","0.439606","-0.526855","0","0","0","0.132339","-0.888488","0.439404","-0.158673","-0.456576","-0.87542","0.978422","0.0461303","-0.201402"
"10","159994773300397","12.3064","0.0947571","-1.5614","0","0","0","0.131481","-0.874093","0.467626","-0.14851","-0.483765","-0.862506","0.980131","0.0439558","-0.193418"
"10","159994790115583","13.6283","1.5891","-5.02905","0","0","0","0.137334","-0.865344","0.481995","-0.149546","-0.499142","-0.853518","0.979171","0.0451364","-0.197957"
"10","159994806961286","13.9157","4.19463","-5.89117","0","0","0","0.15412","-0.871028","0.46643","-0.157324","-0.487681","-0.85873","0.975447","0.0589671","-0.212195"
"10","159994823715436","11.4059","4.50116","-6.21687","0","0","0","0.176829","-0.875436","0.449827","-0.165255","-0.476948","-0.863256","0.970269","0.0783125","-0.229008"
"10","159994840500104","9.14525","2.7386","-5.45055","0","0","0","0.179282","-0.914438","0.362852","-0.191621","-0.394222","-0.898816","0.964956","0.0916117","-0.245902"
"10","159994857254255","7.97659","0.458755","-4.1861","0","0","0","0.188841","-0.907529","0.37514","-0.199216","-0.409473","-0.890306","0.961588","0.0933919","-0.25812"
"10","159994874038923","7.21027","-0.824844","-3.99451","0","0","0","0.187576","-0.906929","0.37722","-0.210414","-0.412222","-0.886453","0.959448","0.0869054","-0.268154"
"10","159994890854108","7.26775","-0.844009","-3.80293","0","0","0","0.170841","-0.929689","0.326332","-0.232711","-0.359903","-0.903502","0.957423","0.078414","-0.277835"
"10","159994907638776","7.86165","-0.403366","-3.45808","0","0","0","0.185787","-0.899015","0.396553","-0.227253","-0.431951","-0.872796","0.955949","0.072036","-0.284555"
"10","159994924392927","9.52841","-0.0393524","-4.22441","0","0","0","0.178802","-0.909018","0.376452","-0.238748","-0.411269","-0.879692","0.954479","0.0674133","-0.290562"
"10","159994941177595","11.0611","0.918564","-5.02905","0","0","0","0.189719","-0.894491","0.404836","-0.24038","-0.442092","-0.86416","0.951958","0.0666327","-0.298891"
"10","159994957962263","10.5821","1.39752","-4.72252","0","0","0","0.187261","-0.907551","0.375879","-0.251932","-0.414221","-0.874615","0.949454","0.0690853","-0.306209"
"10","159994974777448","9.70084","1.45499","-3.78377","0","0","0","0.178107","-0.928502","0.325825","-0.264519","-0.364109","-0.893003","0.947791","0.0728634","-0.310457"
"10","159994991501081","7.78502","1.07182","-3.8604","0","0","0","0.188279","-0.924898","0.330325","-0.268636","-0.372013","-0.888505","0.944662","0.0785492","-0.318503"
"10","159995008316266","7.78502","1.07182","-3.8604","0","0","0","0.188279","-0.924898","0.330325","-0.268636","-0.372013","-0.888505","0.944662","0.0785492","-0.318503"
"10","159995024551618","7.63174","0.707825","-3.45808","0","0","0","0.196787","-0.91652","0.348233","-0.268831","-0.392005","-0.879808","0.94287","0.0795193","-0.32353"
"10","159995041305768","7.7467","0.286331","-3.01744","0","0","0","0.190792","-0.924644","0.329595","-0.27568","-0.372721","-0.886047","0.942124","0.0781882","-0.326018"
"10","159995058670270","7.84248","0.343811","-2.67259","0","0","0","0.190134","-0.923564","0.332985","-0.275971","-0.375775","-0.884666","0.942173","0.0763111","-0.326324"
"10","159995075424421","8.4364","0.592865","-2.40437","0","0","0","0.161959","-0.955219","0.247639","-0.29237","-0.286134","-0.912495","0.942491","0.0753846","-0.32562"
"10","159995092209089","8.55135","0.152222","-2.53848","0","0","0","0.170026","-0.945434","0.277931","-0.284658","-0.317135","-0.904652","0.94343","0.0746987","-0.323046"
"10","159995108444440","8.74294","-0.192627","-2.51932","0","0","0","0.167862","-0.943749","0.284887","-0.282597","-0.322926","-0.903249","0.944437","0.0711127","-0.320907"
"10","159995125259626","8.81956","-0.614105","-2.36606","0","0","0","0.134525","-0.974429","0.179977","-0.299902","-0.213147","-0.929853","0.944437","0.0711127","-0.320907"
"10","159995142044294","8.72377","-0.690735","-2.30858","0","0","0","0.145283","-0.953796","0.262993","-0.285575","-0.294925","-0.911848","0.94728","0.057372","-0.315228"
"10","159995158828962","8.37892","-0.57579","-2.2511","0","0","0","0.144689","-0.947634","0.284702","-0.281721","-0.315274","-0.90622","0.948524","0.0509134","-0.312585"
"10","159995175583112","8.12987","-0.384201","-2.02121","0","0","0","0.147792","-0.937959","0.313673","-0.276219","-0.343681","-0.897545","0.949664","0.0460075","-0.309875"
"10","159995192367780","8.47472","-0.460846","-1.61888","0","0","0","0.147792","-0.937959","0.313673","-0.276219","-0.343681","-0.897545","0.949664","0.0460075","-0.309875"
"10","159995209182966","9.20273","-0.422516","-1.69551","0","0","0","0.142166","-0.937703","0.317021","-0.272752","-0.344986","-0.898104","0.951523","0.0412114","-0.304806"
"10","159995225967634","9.94991","0.286331","-1.54225","0","0","0","0.121746","-0.950292","0.286572","-0.266306","-0.309407","-0.912879","0.956169","0.0348235","-0.290737"
"10","159995242721784","9.87326","0.650345","-1.81047","0","0","0","0.136923","-0.928941","0.343977","-0.251265","-0.368461","-0.895043","0.958185","0.0361223","-0.283861"
"10","159995259536970","10.0265","0.55455","-2.40437","0","0","0","0.139853","-0.924278","0.355177","-0.245526","-0.37987","-0.891861","0.959249","0.0375244","-0.28006"
"10","159995276321638","10.3139","0.477921","-2.65343","0","0","0","0.142571","-0.919274","0.36689","-0.241614","-0.391786","-0.887765","0.959842","0.0379239","-0.277967"
"10","159995293106305","10.2181","0.650345","-2.8067","0","0","0","0.158611","-0.891606","0.424124","-0.230551","-0.451132","-0.862163","0.960046","0.0389659","-0.277115"
"10","159995309890973","10.0074","0.439606","-2.23195","0","0","0","0.131906","-0.936419","0.325147","-0.244601","-0.348618","-0.904785","0.96061","0.0398153","-0.275034"
"10","159995326675641","10.8887","-0.748215","-1.77214","0","0","0","0.132932","-0.926091","0.353108","-0.236502","-0.375617","-0.896091","0.962495","0.0356084","-0.268953"
"10","159995343460309","12.3447","-1.24632","-2.21278","0","0","0","0.148086","-0.877904","0.455363","-0.21826","-0.478098","-0.850756","0.96459","0.0265976","-0.262411"
"10","159995360275495","12.4788","1.03351","-0.833389","0","0","0","0.127034","-0.908731","0.39758","-0.220097","-0.416659","-0.882016","0.967171","0.0245404","-0.252939"
"10","159995377029645","11.4442","1.51247","-0.603485","0","0","0","0.120336","-0.922389","0.367039","-0.210108","-0.385014","-0.898676","0.970244","0.0310253","-0.240132"
"10","159995393844831","10.448","0.228867","-2.97913","0","0","0","0.129923","-0.904298","0.406651","-0.200704","-0.425623","-0.882362","0.970998","0.0330225","-0.236794"
"10","159995410598981","11.4251","-1.45708","-5.58464","0","0","0","0.118054","-0.924251","0.363076","-0.219413","-0.380874","-0.898216","0.968463","0.0263742","-0.247756"
"10","159995427383649","12.6512","-2.45331","-7.36636","0","0","0","0.113579","-0.923075","0.367466","-0.240961","-0.38441","-0.89116","0.963866","0.012672","-0.266086"
"10","159995444168317","11.655","-2.16592","-7.92195","0","0","0","0.0968581","-0.941471","0.322878","-0.27127","-0.337093","-0.901544","0.957617","-0.000265397","-0.288043"
"10","159995460952985","9.68169","-1.34212","-5.54633","0","0","0","0.107002","-0.926283","0.361318","-0.285145","-0.376728","-0.881344","0.952493","-0.00872271","-0.304436"
"10","159995477768171","9.20273","-0.307571","-3.4964","0","0","0","0.107804","-0.924195","0.36639","-0.290324","-0.381739","-0.877489","0.950837","-0.0117749","-0.309469"
"10","159995494522321","9.1261","0.55455","-3.11322","0","0","0","0.0965717","-0.940647","0.325357","-0.295017","-0.339247","-0.893239","0.950599","-0.00972403","-0.310268"
"10","159995511368024","9.20273","1.30173","-3.61134","0","0","0","0.0876729","-0.957531","0.274678","-0.300829","-0.288316","-0.909052","0.949639","-0.002932","-0.313331"
"10","159995528122175","9.79663","1.07182","-3.61134","0","0","0","0.119355","-0.929355","0.349361","-0.29179","-0.369171","-0.882367","0.949006","0.00337472","-0.315238"
"10","159995544876325","10.6396","0.592865","-4.10945","0","0","0","0.110313","-0.944798","0.308525","-0.29788","-0.327578","-0.896638","0.948208","0.00700702","-0.317572"
"10","159995561722028","10.4097","0.535385","-4.49263","0","0","0","0.111418","-0.94723","0.300568","-0.301862","-0.320419","-0.897893","0.946819","0.00931111","-0.321633"
"10","159995578994977","9.4901","0.995193","-4.32021","0","0","0","0.122872","-0.940251","0.317538","-0.303248","-0.340231","-0.890103","0.944957","0.0130762","-0.326934"
"10","159995595810163","8.37892","1.34004","-3.72629","0","0","0","0.131766","-0.937587","0.321821","-0.304318","-0.347235","-0.887028","0.943413","0.0189442","-0.331078"
"10","159995612533796","7.91913","1.18677","-3.30481","0","0","0","0.129184","-0.947024","0.294035","-0.308998","-0.3202","-0.89554","0.942248","0.024833","-0.333993"
"10","159995629379499","7.86165","0.669495","-2.90248","0","0","0","0.139149","-0.940053","0.311348","-0.306297","-0.339846","-0.889206","0.941711","0.0283672","-0.335224"
"10","159995646194684","8.30229","-0.0968323","-2.04036","0","0","0","0.152835","-0.922494","0.354467","-0.297015","-0.384976","-0.873828","0.942562","0.0282697","-0.332833"
"10","159995662887800","8.22565","-0.173462","-2.00204","0","0","0","0.134569","-0.940577","0.311779","-0.300906","-0.338572","-0.89153","0.944112","0.0261561","-0.328586"
"10","159995679702985","7.78502","0.190536","-1.94456","0","0","0","0.145807","-0.924215","0.35294","-0.29123","-0.381042","-0.877492","0.945476","0.0251574","-0.324718"
"10","159995696457136","7.57426","0.899399","-2.17447","0","0","0","0.149263","-0.921343","0.358954","-0.287027","-0.387762","-0.875931","0.946222","0.0277142","-0.322329"
"10","159995713272321","7.97659","1.18677","-2.34689","0","0","0","0.145146","-0.931325","0.334015","-0.287419","-0.362721","-0.886467","0.946743","0.0326645","-0.320328"
"10","159995730087507","8.28313","1.39752","-2.481","0","0","0","0.144799","-0.937662","0.31595","-0.286866","-0.345383","-0.893543","0.946964","0.0387489","-0.318994"
"10","159995746811139","8.28313","1.32088","-1.92542","0","0","0","0.15228","-0.938372","0.310271","-0.27759","-0.341904","-0.8978","0.948554","0.0505889","-0.312548"
"10","159995763077009","8.28313","1.32088","-1.92542","0","0","0","0.15228","-0.938372","0.310271","-0.27759","-0.341904","-0.8978","0.948554","0.0505889","-0.312548"
"10","159995779831159","8.53218","1.18677","-1.48477","0","0","0","0.151055","-0.942487","0.298161","-0.272486","-0.329636","-0.903931","0.950228","0.0552982","-0.306608"
"10","159995796646345","8.85788","0.74614","-1.23572","0","0","0","0.164267","-0.923715","0.346073","-0.255483","-0.378708","-0.889555","0.952756","0.0577089","-0.298203"
"10","159995813461530","9.43263","0.0181122","-1.35066","0","0","0","0.146813","-0.942249","0.301018","-0.256352","-0.330162","-0.908447","0.955369","0.056205","-0.290019"
"10","159995830215680","10.0648","-0.441681","-1.2932","0","0","0","0.143826","-0.936545","0.319684","-0.247071","-0.346796","-0.904814","0.958264","0.0511508","-0.281271"
"10","159995847000348","10.448","-0.403366","-1.42729","0","0","0","0.143826","-0.936545","0.319684","-0.247071","-0.346796","-0.904814","0.958264","0.0511508","-0.281271"
"10","159995863785016","10.1223","0.152222","-1.69551","0","0","0","0.153867","-0.907357","0.391189","-0.229538","-0.417896","-0.879019","0.96106","0.0454593","-0.272574"
"10","159995880569684","9.33684","0.765289","-2.11699","0","0","0","0.15275","-0.899036","0.410368","-0.221373","-0.435816","-0.872387","0.963152","0.0424128","-0.265593"
"10","159995897354352","9.18356","1.07182","-2.04036","0","0","0","0.140645","-0.923796","0.356117","-0.223508","-0.380033","-0.897563","0.964502","0.0466427","-0.259925"
"10","159995914108503","10.7929","1.41667","-1.27403","0","0","0","0.148482","-0.909739","0.387722","-0.21838","-0.412553","-0.88437","0.964502","0.0466427","-0.259925"
"10","159995930893171","12.7279","1.72321","0.239471","0","0","0","0.15574","-0.898247","0.410972","-0.206937","-0.436485","-0.87559","0.965879","0.0513188","-0.253858"
"10","159995947708356","13.6666","-0.211777","-0.00958252","0","0","0","0.145357","-0.896956","0.417542","-0.17396","-0.43862","-0.881675","0.973966","0.055522","-0.219791"
"10","159995964462507","13.0727","-1.26549","-1.17824","0","0","0","0.137756","-0.881095","0.452433","-0.16269","-0.470713","-0.867157","0.977014","0.0458493","-0.208189"
"10","159995981277692","11.6933","0.592865","-5.02905","0","0","0","0.152378","-0.830766","0.535359","-0.15493","-0.555067","-0.81725","0.976103","0.0415877","-0.21329"
"10","159995998031843","12.4596","4.15631","-8.32428","0","0","0","0.162893","-0.869417","0.466456","-0.181474","-0.491105","-0.851987","0.969811","0.0541329","-0.237774"
"10","159996015365827","11.7891","5.42076","-8.20934","0","0","0","0.182745","-0.896793","0.402948","-0.20504","-0.435602","-0.876476","0.961542","0.0775508","-0.263483"
"10","159996031601179","9.96906","3.31334","-8.17102","0","0","0","0.208967","-0.892019","0.400793","-0.219793","-0.442196","-0.869571","0.952903","0.09362","-0.288464"
"10","159996048385846","9.14525","1.18677","-6.42761","0","0","0","0.200544","-0.924856","0.323147","-0.253952","-0.367649","-0.894619","0.946198","0.0973462","-0.308599"
"10","159996065201032","7.93828","0.382126","-4.07114","0","0","0","0.225313","-0.888612","0.399504","-0.244648","-0.448511","-0.859642","0.94307","0.0959504","-0.318452"
"10","159996081985700","6.42477","-0.671585","-2.55763","0","0","0","0.208578","-0.910646","0.356677","-0.260638","-0.403266","-0.87718","0.942636","0.0899973","-0.321462"
"10","159996098739850","7.55511","-1.05475","-2.71091","0","0","0","0.20422","-0.906882","0.368589","-0.262695","-0.413484","-0.871793","0.943019","0.0812113","-0.322675"
"10","159996115555036","9.77748","-0.422516","-3.89871","0","0","0","0.198458","-0.906734","0.372087","-0.267192","-0.415311","-0.869555","0.942986","0.073152","-0.324694"
"10","159996132339704","11.4059","1.07182","-5.29727","0","0","0","0.201869","-0.90269","0.38","-0.270776","-0.424304","-0.864087","0.941238","0.0715374","-0.33008"
"10","159996149124372","11.54","1.78069","-5.62297","0","0","0","0.204531","-0.907407","0.367122","-0.27845","-0.413491","-0.866886","0.93842","0.07508","-0.33724"
"10","159996165878522","10.5438","1.60826","-5.16316","0","0","0","0.198479","-0.923821","0.327353","-0.291512","-0.374526","-0.880199","0.935749","0.0792741","-0.343641"
"10","159996182663190","9.35599","0.899399","-4.33936","0","0","0","0.207983","-0.915215","0.345143","-0.291019","-0.394779","-0.871468","0.933837","0.0808076","-0.348453"
"10","159996199478376","8.35976","0.0947571","-3.72629","0","0","0","0.200517","-0.924094","0.325336","-0.299393","-0.373994","-0.877777","0.932822","0.0786055","-0.351659"
"10","159996216263044","7.82333","-0.0776672","-3.38144","0","0","0","0.195525","-0.927171","0.319568","-0.30427","-0.367129","-0.878997","0.932303","0.0746305","-0.353893"
"10","159996233047712","8.1107","0.267181","-3.41975","0","0","0","0.183698","-0.938732","0.291611","-0.312914","-0.337071","-0.887957","0.931847","0.0718667","-0.355662"
"10","159996249801862","8.35976","0.68866","-3.41975","0","0","0","0.189143","-0.932805","0.306758","-0.311408","-0.353253","-0.882178","0.931263","0.0713307","-0.357298"
"10","159996266617048","8.5705","0.956879","-3.20901","0","0","0","0.171251","-0.952456","0.251993","-0.322205","-0.29585","-0.899254","0.931052","0.0728051","-0.35755"
"10","159996283371198","8.89619","0.726974","-3.15155","0","0","0","0.173428","-0.950863","0.256481","-0.32039","-0.300734","-0.898281","0.931275","0.0736129","-0.356802"
"10","159996300766218","8.87703","0.382126","-3.13239","0","0","0","0.174485","-0.948614","0.263983","-0.318085","-0.308024","-0.896629","0.931868","0.0724794","-0.355485"
"10","159996317550886","8.66629","0.0947571","-2.99828","0","0","0","0.197947","-0.919481","0.339663","-0.302023","-0.386873","-0.87127","0.932523","0.0698791","-0.354285"
"10","159996334305036","8.34061","-0.0776672","-2.38521","0","0","0","0.180257","-0.935926","0.302572","-0.308758","-0.345902","-0.886014","0.933904","0.0662883","-0.351326"
"10","159996351059186","8.35976","-0.211777","-2.05952","0","0","0","0.173602","-0.937762","0.300774","-0.306148","-0.341668","-0.888559","0.936021","0.0621738","-0.346408"
"10","159996367874372","8.49387","-0.0393524","-1.6572","0","0","0","0.167379","-0.93913","0.300033","-0.301517","-0.338506","-0.891348","0.938654","0.0587283","-0.339822"
"10","159996384628522","8.62798","0.248016","-1.5614","0","0","0","0.177143","-0.921948","0.34443","-0.287","-0.383145","-0.87797","0.941409","0.0566749","-0.332471"
"10","159996401474225","8.64714","0.401291","-1.54225","0","0","0","0.169139","-0.927989","0.332006","-0.283023","-0.368403","-0.885538","0.944081","0.0558132","-0.324954"
"10","159996418228376","8.72377","0.49707","-1.77214","0","0","0","0.157642","-0.939574","0.303892","-0.282344","-0.337778","-0.89788","0.946272","0.055741","-0.318531"
"10","159996435013044","8.99199","0.573715","-1.77214","0","0","0","0.162728","-0.930802","0.327304","-0.272444","-0.361218","-0.891794","0.948311","0.0559479","-0.312372"
"10","159996451797712","9.27936","0.305496","-1.48477","0","0","0","0.152121","-0.940741","0.303094","-0.270106","-0.334558","-0.902836","0.950738","0.0554725","-0.304993"
"10","159996468582380","9.56674","-0.307571","-1.6572","0","0","0","0.172072","-0.902533","0.394746","-0.247877","-0.427499","-0.869368","0.953388","0.051746","-0.297278"
"10","159996485428083","9.79663","-0.7099","-2.21278","0","0","0","0.15386","-0.919833","0.36088","-0.252086","-0.389684","-0.885776","0.955395","0.045313","-0.291833"
"10","159996502182233","10.2948","0.0372772","-1.94456","0","0","0","0.132394","-0.942294","0.307496","-0.258181","-0.332302","-0.907148","0.956982","0.0407113","-0.287277"
"10","159996518936384","10.3331","0.439606","-1.69551","0","0","0","0.14177","-0.925078","0.352322","-0.245161","-0.377641","-0.892907","0.959061","0.0402119","-0.280332"
"10","159996535721052","10.5821","-0.0968323","-2.19363","0","0","0","0.135461","-0.929764","0.34233","-0.242277","-0.36611","-0.898479","0.960704","0.0387703","-0.274854"
"10","159996552505720","11.2143","-0.748215","-2.55763","0","0","0","0.132868","-0.924223","0.357992","-0.239347","-0.380425","-0.893303","0.9618","0.0330069","-0.271756"
"10","159996569290388","11.4442","0.075592","-1.58057","0","0","0","0.12866","-0.921877","0.365499","-0.2342","-0.386383","-0.892109","0.963637","0.0291791","-0.265616"
"10","159996585525739","11.6167","1.26341","-0.81424","0","0","0","0.129505","-0.918066","0.374676","-0.221609","-0.395098","-0.891508","0.966498","0.0324232","-0.254619"
"10","159996602859723","11.9615","0.899399","-2.11699","0","0","0","0.137662","-0.902602","0.407872","-0.207323","-0.428929","-0.879226","0.968538","0.0364749","-0.246177"
"10","159996619644391","12.747","-0.250092","-5.18233","0","0","0","0.121524","-0.932885","0.339054","-0.222721","-0.358504","-0.906571","0.967278","0.0346561","-0.25134"
"10","159996636459577","14.567","-1.53371","-7.19394","0","0","0","0.120398","-0.931069","0.344405","-0.238582","-0.363899","-0.900365","0.96363","0.026233","-0.265949"
"10","159996653244245","12.6512","-1.7636","-7.27058","0","0","0","0.123878","-0.920029","0.371755","-0.25688","-0.391603","-0.88355","0.958471","0.0139561","-0.284848"
"10","159996669449079","9.45178","-0.882324","-5.4697","0","0","0","0.12953","-0.911024","0.391482","-0.269136","-0.412288","-0.870393","0.954352","0.00738028","-0.298594"
"10","159996686783063","7.70837","0.190536","-4.01367","0","0","0","0.113989","-0.935675","0.333943","-0.286148","-0.352811","-0.890867","0.951381","0.00599226","-0.307958"
"10","159996703567731","6.80794","1.16762","-3.1707","0","0","0","0.0896901","-0.966615","0.240022","-0.300409","-0.256025","-0.918807","0.949584","0.0103031","-0.313343"
"10","159996720352399","7.21027","1.30173","-3.38144","0","0","0","0.108348","-0.956024","0.272542","-0.2994","-0.292808","-0.908087","0.947956","0.01679","-0.317959"
"10","159996737167585","8.35976","0.918564","-3.84125","0","0","0","0.0989761","-0.969423","0.224548","-0.308428","-0.24443","-0.919308","0.946084","0.0217325","-0.32319"
"10","159996753952253","9.77748","0.324646","-3.91788","0","0","0","0.0958285","-0.973544","0.207433","-0.313345","-0.227301","-0.922035","0.944792","0.0233592","-0.326838"
"10","159996770736921","10.812","0.075592","-4.37767","0","0","0","0.106812","-0.964951","0.239711","-0.312533","-0.261454","-0.913217","0.943883","0.0226247","-0.329506"
"10","159996787521589","10.6013","0.592865","-5.12485","0","0","0","0.107988","-0.965285","0.237832","-0.317401","-0.260187","-0.911899","0.942123","0.0229855","-0.33448"
"10","159996804275739","9.66252","0.918564","-4.78","0","0","0","0.121964","-0.957056","0.263001","-0.319695","-0.288737","-0.902455","0.939638","0.0259872","-0.341182"
"10","159996821090925","8.8004","1.05267","-3.84125","0","0","0","0.127018","-0.956624","0.262178","-0.322454","-0.289785","-0.901137","0.938024","0.0299205","-0.345275"
"10","159996837875593","7.86165","0.937714","-2.97913","0","0","0","0.126104","-0.960622","0.247594","-0.324395","-0.275796","-0.904823","0.937478","0.0337833","-0.3464"
"10","159996854629743","7.68922","0.49707","-2.59595","0","0","0","0.127515","-0.960707","0.246541","-0.323249","-0.275252","-0.905398","0.937683","0.0357574","-0.345646"
"10","159996871414411","7.82333","0.343811","-2.32774","0","0","0","0.118401","-0.968055","0.22102","-0.32474","-0.248096","-0.912684","0.938363","0.0362891","-0.343742"
"10","159996888199079","7.97659","0.401291","-2.07867","0","0","0","0.131042","-0.95708","0.258508","-0.316052","-0.287482","-0.904138","0.939648","0.0367777","-0.34016"
"10","159996905014264","7.99576","0.171387","-2.30858","0","0","0","0.123989","-0.96244","0.241527","-0.315433","-0.269009","-0.91002","0.940813","0.0366465","-0.336939"
"10","159996921768415","8.01491","0.075592","-2.76837","0","0","0","0.137988","-0.948009","0.286773","-0.308146","-0.316265","-0.897231","0.941279","0.0354393","-0.335766"
"10","159996938583600","8.09155","0.305496","-2.50017","0","0","0","0.131007","-0.954242","0.268811","-0.30992","-0.296978","-0.903191","0.941694","0.0350141","-0.334645"
"10","159996955337751","7.53595","0.726974","-2.07867","0","0","0","0.130624","-0.955383","0.264917","-0.307616","-0.293075","-0.905251","0.942502","0.036755","-0.332174"
"10","159996972122419","7.65091","0.707825","-1.58057","0","0","0","0.143744","-0.942827","0.300691","-0.296853","-0.330934","-0.895746","0.944043","0.0394969","-0.32745"
"10","159996988937604","8.45555","0.439606","-1.54225","0","0","0","0.133468","-0.952739","0.2729","-0.294464","-0.301051","-0.907006","0.946297","0.0406971","-0.320728"
"10","159997005691755","9.22188","0.650345","-1.84879","0","0","0","0.139938","-0.944587","0.296938","-0.284567","-0.325604","-0.901667","0.948388","0.0416792","-0.314363"
"10","159997022476423","9.50926","0.918564","-1.61888","0","0","0","0.126063","-0.959593","0.251574","-0.283346","-0.277862","-0.917882","0.950696","0.0444282","-0.306924"
"10","159997039291608","9.98822","0.55455","-1.35066","0","0","0","0.147453","-0.932947","0.328431","-0.26262","-0.357072","-0.896398","0.953566","0.0459242","-0.297662"
"10","159997056076276","10.2756","0.0181122","-1.15909","0","0","0","0.139569","-0.936873","0.320609","-0.25468","-0.346849","-0.902682","0.9569","0.0443335","-0.287012"
"10","159997072821368","10.084","-0.115982","-1.46562","0","0","0","0.141854","-0.924774","0.353088","-0.242454","-0.378289","-0.893372","0.959736","0.041121","-0.277877"
"10","159997089636553","9.50926","0.171387","-2.02121","0","0","0","0.14228","-0.918869","0.368016","-0.236675","-0.392595","-0.888737","0.961115","0.0393495","-0.273332"
"10","159997106421221","9.62421","0.209702","-2.07867","0","0","0","0.133032","-0.930208","0.342075","-0.238144","-0.365032","-0.900022","0.962076","0.0382682","-0.270085"
"10","159997123205889","10.812","0.535385","-2.07867","0","0","0","0.123069","-0.942644","0.310284","-0.238897","-0.331607","-0.912669","0.963215","0.0381949","-0.266005"
"10","159997139990557","12.4596","0.765289","-1.21655","0","0","0","0.133198","-0.923884","0.358743","-0.223081","-0.380628","-0.897417","0.965657","0.0395052","-0.2568"
"10","159997156744707","13.3218","0.956879","-0.182007","0","0","0","0.140211","-0.902738","0.4067","-0.201059","-0.428159","-0.881054","0.969493","0.0417624","-0.241536"
"10","159997173529375","13.3601","0.0181122","0.181992","0","0","0","0.141336","-0.878946","0.455497","-0.177678","-0.475167","-0.86177","0.973886","0.0408671","-0.223328"
"10","159997190314043","12.9003","-0.690735","-1.86794","0","0","0","0.129808","-0.884235","0.448641","-0.172832","-0.46572","-0.86789","0.97636","0.0351192","-0.213278"
"10","159997207129229","12.4788","0.61203","-5.71875","0","0","0","0.139692","-0.861757","0.487709","-0.175024","-0.506272","-0.844426","0.974604","0.0325986","-0.22155"
"10","159997223883379","11.6741","5.42076","-6.56172","0","0","0","0.160856","-0.878405","0.450032","-0.187217","-0.474847","-0.859924","0.969059","0.0540706","-0.240834"
"10","159997240698565","9.73917","4.38622","-7.11731","0","0","0","0.177582","-0.904049","0.388793","-0.206853","-0.420537","-0.88338","0.962121","0.0764494","-0.261685"
"10","159997257483233","9.29852","1.97226","-6.48509","0","0","0","0.181685","-0.925653","0.331899","-0.232483","-0.368382","-0.900137","0.95548","0.0863805","-0.282128"
"10","159997274237383","9.0303","0.516235","-5.31644","0","0","0","0.192088","-0.917395","0.348552","-0.24169","-0.388449","-0.88921","0.951151","0.0865649","-0.296341"
"10","159997290503252","8.14902","-0.863159","-4.51178","0","0","0","0.196733","-0.907282","0.371666","-0.248377","-0.412827","-0.876289","0.948475","0.0800818","-0.306565"
"10","159997307806719","7.55511","-1.38043","-4.47346","0","0","0","0.203248","-0.888344","0.411746","-0.252569","-0.45386","-0.854529","0.945991","0.069687","-0.316615"
"10","159997324621905","7.78502","-1.05475","-3.78377","0","0","0","0.176994","-0.921857","0.344751","-0.27775","-0.382828","-0.881078","0.944208","0.0601912","-0.323804"
"10","159997341406573","8.76208","-0.230942","-3.78377","0","0","0","0.182505","-0.909017","0.374673","-0.277749","-0.413218","-0.86724","0.943158","0.0542104","-0.327893"
"10","159997358191241","9.37515","1.1293","-4.22441","0","0","0","0.181775","-0.913233","0.364641","-0.283263","-0.40373","-0.869922","0.941658","0.0548411","-0.332073"
"10","159997374945391","9.45178","1.91479","-4.16693","0","0","0","0.192983","-0.907682","0.372653","-0.28223","-0.415092","-0.864896","0.939736","0.0617365","-0.336281"
"10","159997391760577","9.37515","1.30173","-3.84125","0","0","0","0.197896","-0.908061","0.369138","-0.283296","-0.413499","-0.86531","0.938393","0.0666663","-0.339079"
"10","159997408545245","9.06862","0.822769","-3.70714","0","0","0","0.183727","-0.929646","0.319378","-0.295344","-0.362103","-0.884111","0.937559","0.0681089","-0.341094"
"10","159997425329912","8.4364","1.07182","-3.41975","0","0","0","0.197821","-0.914172","0.353773","-0.289046","-0.399259","-0.870083","0.936653","0.0698638","-0.34322"
"10","159997442114580","7.89996","0.956879","-2.78754","0","0","0","0.19439","-0.921448","0.336371","-0.292253","-0.381743","-0.876847","0.936376","0.0721444","-0.343503"
"10","159997458868731","7.57426","0.401291","-2.07867","0","0","0","0.190155","-0.926441","0.324881","-0.292686","-0.369367","-0.881988","0.937111","0.072626","-0.341393"
"10","159997475653399","8.01491","-0.499161","-1.92542","0","0","0","0.167607","-0.946651","0.275246","-0.300091","-0.314937","-0.900423","0.939071","0.0683188","-0.336867"
"10","159997492468584","8.83871","-1.05475","-2.27026","0","0","0","0.167667","-0.937286","0.305586","-0.293455","-0.343374","-0.892176","0.941155","0.0599132","-0.332624"
"10","159997509222735","9.33684","-0.365051","-2.65343","0","0","0","0.165295","-0.931266","0.324687","-0.289462","-0.360526","-0.886698","0.942809","0.0525823","-0.329159"
"10","159997526068438","8.97282","0.305496","-2.84502","0","0","0","0.178566","-0.909578","0.375209","-0.278912","-0.412489","-0.867214","0.943569","0.0502048","-0.327349"
"10","159997542792071","8.22565","0.841919","-2.63428","0","0","0","0.16398","-0.930877","0.326464","-0.287069","-0.361652","-0.887017","0.94377","0.0517355","-0.32653"
"10","159997559576739","7.89996","0.803604","-2.38521","0","0","0","0.14925","-0.949662","0.275438","-0.293967","-0.308579","-0.904634","0.944091","0.0540464","-0.325225"
"10","159997576391924","8.14902","0.324646","-2.21278","0","0","0","0.161174","-0.935489","0.314457","-0.284764","-0.349153","-0.89275","0.944951","0.0543422","-0.322668"
"10","159997593146075","8.89619","-0.230942","-2.13615","0","0","0","0.156831","-0.935866","0.315529","-0.282126","-0.348622","-0.893794","0.946472","0.0511558","-0.318707"
"10","159997609930743","9.27936","-0.460846","-2.23195","0","0","0","0.150475","-0.936488","0.316777","-0.279477","-0.347651","-0.895004","0.948288","0.0461435","-0.314039"
"10","159997626745928","10.2181","0.0181122","-1.75299","0","0","0","0.134101","-0.939122","0.316333","-0.267934","-0.341687","-0.900811","0.954059","0.0360437","-0.297443"
"10","159997643469561","10.2181","0.0181122","-1.75299","0","0","0","0.134101","-0.939122","0.316333","-0.267934","-0.341687","-0.900811","0.954059","0.0360437","-0.297443"
"10","159997660284746","10.2181","0.0181122","-1.75299","0","0","0","0.134101","-0.939122","0.316333","-0.267934","-0.341687","-0.900811","0.954059","0.0360437","-0.297443"
"10","159997676489580","10.5055","-0.0010376","-1.73383","0","0","0","0.134044","-0.933252","0.333277","-0.259014","-0.357616","-0.89723","0.956527","0.0339454","-0.289662"
"10","159997693854082","10.6971","-0.0585175","-2.13615","0","0","0","0.124959","-0.940042","0.317341","-0.256274","-0.339575","-0.904993","0.958493","0.0317611","-0.283341"
"10","159997710669268","10.3714","0.0947571","-2.38521","0","0","0","0.142942","-0.908131","0.39353","-0.24202","-0.417615","-0.875799","0.959684","0.0299468","-0.27948"
"10","159997727423418","9.85411","0.63118","-2.38521","0","0","0","0.138328","-0.915204","0.378505","-0.241698","-0.401819","-0.883246","0.960441","0.0306937","-0.276786"
"10","159997744299639","9.70084","0.707825","-2.02121","0","0","0","0.131057","-0.9284","0.347703","-0.242352","-0.37009","-0.896827","0.961296","0.0332693","-0.273503"
"10","159997761023272","10.1415","-0.65242","-1.5614","0","0","0","0.124943","-0.931005","0.342957","-0.238518","-0.363714","-0.900456","0.963067","0.0307048","-0.267505"
"10","159997777258623","11.655","-1.53371","-1.75299","0","0","0","0.119836","-0.921437","0.369585","-0.231789","-0.387947","-0.89206","0.965356","0.0212351","-0.260069"
"10","159997794592608","12.498","0.113907","-1.42729","0","0","0","0.113876","-0.917952","0.379996","-0.224547","-0.396367","-0.890209","0.967787","0.0160467","-0.25126"
"10","159997810827959","13.1685","0.784454","-3.43892","0","0","0","0.0997111","-0.941563","0.32174","-0.227243","-0.336355","-0.913907","0.96872","0.0180136","-0.247501"
"10","159997828192461","13.8773","0.784454","-6.3893","0","0","0","0.118032","-0.922622","0.367203","-0.229962","-0.385132","-0.893751","0.966015","0.0210488","-0.257626"
"10","159997844946612","14.6628","-1.55286","-7.07899","0","0","0","0.0999636","-0.949568","0.2972","-0.253915","-0.313151","-0.91513","0.962047","0.0160164","-0.272413"
"10","159997861731280","12.4405","-2.08929","-6.35098","0","0","0","0.0994936","-0.942735","0.318359","-0.269266","-0.333518","-0.903472","0.957913","0.00416652","-0.287029"
"10","159997878485430","9.72","-1.45708","-4.47346","0","0","0","0.0938335","-0.943596","0.317526","-0.280175","-0.331071","-0.901052","0.955352","-0.00441408","-0.295438"
"10","159997895270098","8.12987","-0.939789","-3.59218","0","0","0","0.0919554","-0.942194","0.322203","-0.28706","-0.33492","-0.897455","0.953489","-0.0099658","-0.301264"
"10","159997912085284","7.47849","-0.154312","-2.61511","0","0","0","0.084429","-0.949631","0.301782","-0.291928","-0.313148","-0.903724","0.952706","-0.0117981","-0.303663"
"10","159997928869952","7.84248","0.592865","-2.86417","0","0","0","0.0769178","-0.959569","0.270762","-0.294834","-0.281312","-0.913201","0.952448","-0.0095884","-0.304551"
"10","159997945624102","9.29852","1.5891","-3.18987","0","0","0","0.0818551","-0.962024","0.260402","-0.294963","-0.272958","-0.915692","0.951996","-0.00185483","-0.306104"
"10","159997962439287","9.73917","1.68489","-3.41975","0","0","0","0.0799443","-0.971093","0.224917","-0.296848","-0.238595","-0.924637","0.951572","0.00715323","-0.307341"
"10","159997979223955","9.73917","1.47415","-3.99451","0","0","0","0.094698","-0.965365","0.24311","-0.296235","-0.260471","-0.918912","0.950409","0.0150012","-0.310641"
"10","159997996008623","9.22188","0.918564","-4.56926","0","0","0","0.0800596","-0.980866","0.177461","-0.307279","-0.193647","-0.931708","0.948246","0.0200623","-0.316903"
"10","159998012762774","8.68546","0.305496","-4.53094","0","0","0","0.102042","-0.967232","0.232485","-0.309155","-0.252967","-0.91675","0.945521","0.0216734","-0.324838"
"10","159998029547442","8.09155","0.248016","-3.87956","0","0","0","0.0979558","-0.971712","0.214896","-0.316879","-0.23515","-0.918854","0.943394","0.0219111","-0.33095"
"10","159998045752276","7.49763","0.458755","-3.15155","0","0","0","0.0955846","-0.974625","0.202408","-0.32132","-0.222664","-0.920421","0.942134","0.0229403","-0.33445"
"10","159998063086260","8.68546","-0.0776672","-2.51932","0","0","0","0.0842173","-0.980952","0.175043","-0.319101","-0.192966","-0.927868","0.943971","0.0222862","-0.329274"
"10","159998079870928","8.5705","0.937714","-2.36606","0","0","0","0.114174","-0.958404","0.261582","-0.303945","-0.284377","-0.909256","0.945823","0.0243072","-0.323771"
"10","159998096655596","8.5705","0.937714","-2.36606","0","0","0","0.114174","-0.958404","0.261582","-0.303945","-0.284377","-0.909256","0.945823","0.0243072","-0.323771"
"10","159998113440264","8.68546","1.20593","-2.34689","0","0","0","0.114174","-0.958404","0.261582","-0.303945","-0.284377","-0.909256","0.945823","0.0243072","-0.323771"
"10","159998129706133","8.64714","1.43584","-2.40437","0","0","0","0.0740502","-0.989381","0.125071","-0.313517","-0.142152","-0.938882","0.946691","0.0303127","-0.320714"
"10","159998146460284","8.64714","1.43584","-2.40437","0","0","0","0.0740502","-0.989381","0.125071","-0.313517","-0.142152","-0.938882","0.946691","0.0303127","-0.320714"
"10","159998163794268","8.64714","1.43584","-2.40437","0","0","0","0.0740502","-0.989381","0.125071","-0.313517","-0.142152","-0.938882","0.946691","0.0303127","-0.320714"
"10","159998180029620","8.66629","1.79984","-2.13615","0","0","0","0.0671691","-0.994522","0.0800903","-0.31236","-0.097197","-0.944978","0.947586","0.0384564","-0.317177"
"10","159998196844805","8.51303","1.83815","-2.05952","0","0","0","0.0971434","-0.984469","0.14623","-0.301485","-0.169129","-0.938351","0.948509","0.0470686","-0.313232"
"10","159998214148272","8.81956","1.51247","-1.73383","0","0","0","0.0975347","-0.987045","0.127397","-0.297002","-0.151042","-0.942855","0.949883","0.0541239","-0.307886"
"10","159998230414141","9.33684","0.726974","-1.12076","0","0","0","0.0970778","-0.987773","0.121982","-0.288584","-0.145232","-0.946376","0.95252","0.0566699","-0.299154"
"10","159998247198809","9.60506","0.190536","-0.81424","0","0","0","0.105023","-0.981826","0.158072","-0.274418","-0.181392","-0.944347","0.955858","0.0558002","-0.288482"
"10","159998263983477","9.8158","-0.384201","-0.69928","0","0","0","0.112578","-0.97136","0.20925","-0.258155","-0.23195","-0.937846","0.959522","0.0515619","-0.276874"
"10","159998280737627","9.96906","-0.748215","-0.775909","0","0","0","0.107136","-0.968593","0.224386","-0.247442","-0.24456","-0.93753","0.962961","0.0449208","-0.265872"
"10","159998297552813","10.1415","-0.671585","-1.12076","0","0","0","0.111577","-0.954064","0.278052","-0.234021","-0.297157","-0.925706","0.965808","0.0382174","-0.256427"
"10","159998314337481","10.084","-0.115982","-1.59972","0","0","0","0.102829","-0.9582","0.266983","-0.230482","-0.284053","-0.930694","0.967628","0.034168","-0.250057"
"10","159998331091631","10.1032","0.343811","-1.71468","0","0","0","0.108024","-0.948691","0.29718","-0.222777","-0.314427","-0.922771","0.968866","0.033477","-0.245312"
"10","159998347876299","10.4672","0.707825","-1.86794","0","0","0","0.107529","-0.949178","0.2958","-0.218564","-0.312815","-0.924325","0.96988","0.0347406","-0.241093"
"10","159998364660967","11.6167","1.35919","-0.890869","0","0","0","0.111414","-0.944822","0.308056","-0.208598","-0.325314","-0.922311","0.971635","0.038498","-0.233333"
"10","159998381994952","11.8466","1.28256","0.220322","0","0","0","0.113035","-0.942506","0.314492","-0.193003","-0.33132","-0.923567","0.974666","0.0436974","-0.219358"
"10","159998398260821","11.9041","0.152222","1.13991","0","0","0","0.116907","-0.922169","0.368697","-0.168582","-0.384281","-0.907694","0.97873","0.0439604","-0.200386"
"10","159998415076006","11.655","0.382126","-0.239487","0","0","0","0.12511","-0.876769","0.464353","-0.143092","-0.479082","-0.866028","0.98177","0.0419033","-0.185397"
"10","159998431830157","11.7508","2.87271","-4.22441","0","0","0","0.119593","-0.91736","0.379668","-0.15403","-0.394926","-0.905709","0.980802","0.0498365","-0.188532"
"10","159998448614825","14.1647","5.26749","-8.13271","0","0","0","0.142487","-0.92635","0.348674","-0.171319","-0.370033","-0.913085","0.974858","0.070368","-0.211426"
"10","159998465399493","14.1456","5.07591","-8.68829","0","0","0","0.175124","-0.917287","0.357653","-0.185201","-0.387474","-0.903086","0.966971","0.0919146","-0.237739"
"10","159998482184161","11.0611","3.02597","-8.53502","0","0","0","0.175124","-0.917287","0.357653","-0.185201","-0.387474","-0.903086","0.966971","0.0919146","-0.237739"
"10","159998498968829","9.31767","1.2251","-6.63835","0","0","0","0.192937","-0.921808","0.336222","-0.208567","-0.373358","-0.903938","0.958788","0.104279","-0.264293"
"10","159998515814532","7.1911","0.133072","-4.39684","0","0","0","0.189698","-0.941519","0.27849","-0.239487","-0.319443","-0.916844","0.952187","0.107229","-0.286079"
"10","159998532538164","6.5014","-0.403366","-4.10945","0","0","0","0.179051","-0.953253","0.243412","-0.269702","-0.28549","-0.91965","0.946151","0.0990159","-0.308212"
"10","159998549322832","7.38269","-1.20801","-3.32397","0","0","0","0.191725","-0.93171","0.308477","-0.265689","-0.351844","-0.897561","0.944802","0.0901264","-0.315002"
"10","159998566076983","8.95367","-1.36128","-3.51555","0","0","0","0.174464","-0.942568","0.28483","-0.277602","-0.324616","-0.904191","0.944722","0.0786793","-0.318293"
"10","159998582922686","10.0074","-0.844009","-3.95619","0","0","0","0.160035","-0.950083","0.267825","-0.286728","-0.304366","-0.908377","0.944551","0.0685796","-0.321124"
"10","159998599676836","9.94991","0.0372772","-3.8604","0","0","0","0.160035","-0.950083","0.267825","-0.286728","-0.304366","-0.908377","0.944551","0.0685796","-0.321124"
"10","159998616461504","9.66252","0.113907","-3.15155","0","0","0","0.151957","-0.952464","0.264047","-0.292445","-0.298515","-0.908496","0.944132","0.0608333","-0.323905"
"10","159998633246172","8.8004","-0.192627","-3.53471","0","0","0","0.158906","-0.941903","0.295919","-0.28921","-0.330988","-0.898223","0.943984","0.0571505","-0.325004"
"10","159998650030840","7.80417","0.63118","-3.13239","0","0","0","0.173274","-0.923809","0.341397","-0.28414","-0.378792","-0.880784","0.942995","0.0556124","-0.328126"
"10","159998666815508","7.7467","1.26341","-2.73006","0","0","0","0.15401","-0.950245","0.270766","-0.296829","-0.305874","-0.904618","0.94243","0.0589494","-0.329168"
"10","159998683600176","7.78502","1.28256","-2.88333","0","0","0","0.162478","-0.945395","0.282542","-0.293649","-0.319702","-0.900867","0.942004","0.0634024","-0.329559"
"10","159998700903643","8.55135","1.07182","-2.97913","0","0","0","0.165786","-0.944814","0.282564","-0.292797","-0.320767","-0.900765","0.941693","0.0666004","-0.329817"
"10","159998717749346","9.04945","0.976028","-3.11322","0","0","0","0.156504","-0.956138","0.247602","-0.29829","-0.284742","-0.911013","0.941557","0.06872","-0.329769"
"10","159998734534014","8.85788","0.765289","-2.82585","0","0","0","0.154821","-0.958383","0.239861","-0.298585","-0.276825","-0.913353","0.941742","0.0697874","-0.329017"
"10","159998751288164","8.55135","0.516235","-2.23195","0","0","0","0.164168","-0.948177","0.272047","-0.290135","-0.310003","-0.905384","0.942799","0.0697048","-0.325992"
"10","159998768103350","8.45555","-0.0585175","-1.82962","0","0","0","0.155682","-0.952992","0.25994","-0.288305","-0.295528","-0.910793","0.944798","0.0668516","-0.320761"
"10","159998784888018","8.5705","-0.288422","-2.21278","0","0","0","0.152459","-0.951142","0.268488","-0.284182","-0.302381","-0.909839","0.946571","0.0624133","-0.316398"
"10","159998801611651","9.16441","-0.63327","-2.40437","0","0","0","0.144954","-0.952514","0.267779","-0.283773","-0.299289","-0.910988","0.947872","0.0560624","-0.313681"
"10","159998818426836","9.24104","-0.978119","-2.11699","0","0","0","0.136384","-0.953121","0.270109","-0.282133","-0.298736","-0.911679","0.949632","0.0481321","-0.309649"
"10","159998835242022","9.18356","-1.05475","-1.8871","0","0","0","0.136108","-0.94332","0.302691","-0.275348","-0.329517","-0.903107","0.951661","0.0395752","-0.304591"
"10","159998851996172","9.20273","-0.78653","-1.71468","0","0","0","0.126629","-0.944869","0.301972","-0.272571","-0.325848","-0.905278","0.953766","0.0323261","-0.298806"
"10","159998868811358","9.41347","-0.307571","-1.69551","0","0","0","0.122321","-0.942832","0.31001","-0.267274","-0.332109","-0.904582","0.955825","0.0277921","-0.292618"
"10","159998885565508","9.68169","0.075592","-1.63805","0","0","0","0.12681","-0.931686","0.340413","-0.257636","-0.362342","-0.89573","0.957885","0.0258846","-0.285984"
"10","159998902350176","9.83495","0.592865","-1.75299","0","0","0","0.125122","-0.931928","0.340375","-0.251334","-0.361653","-0.897796","0.959779","0.0267864","-0.279476"
"10","159998919134844","9.93074","0.841919","-1.98289","0","0","0","0.134211","-0.919369","0.369795","-0.241075","-0.392252","-0.887706","0.961182","0.0299919","-0.274282"
"10","159998935919512","9.72","0.209702","-2.42352","0","0","0","0.121852","-0.937869","0.32489","-0.244425","-0.345603","-0.905989","0.961982","0.030985","-0.271351"
"10","159998952734698","9.4901","0.726974","-2.51932","0","0","0","0.131021","-0.925522","0.355306","-0.238899","-0.377309","-0.894743","0.962165","0.0323475","-0.270542"
"10","159998969519366","9.79663","0.63118","-1.94456","0","0","0","0.134741","-0.92122","0.364964","-0.234081","-0.387491","-0.89166","0.962835","0.0347123","-0.267851"
"10","159998986273516","11.4826","-0.901474","-2.15532","0","0","0","0.124278","-0.929058","0.348433","-0.233272","-0.36867","-0.899815","0.964437","0.0305474","-0.262541"
"10","159999003058184","13.2068","-0.978119","-2.59595","0","0","0","0.119287","-0.922338","0.36751","-0.229732","-0.385749","-0.893544","0.965916","0.0221591","-0.257905"
"10","159999019842852","13.0152","0.784454","-1.61888","0","0","0","0.122831","-0.909563","0.396999","-0.219113","-0.415011","-0.883037","0.967937","0.0214766","-0.250273"
"10","159999036627520","11.8083","1.64658","-1.67636","0","0","0","0.106654","-0.941818","0.318753","-0.218759","-0.334953","-0.916488","0.969933","0.0280173","-0.241756"
"10","159999053442705","11.1952","0.573715","-5.31644","0","0","0","0.0894614","-0.969807","0.226871","-0.232569","-0.241828","-0.942036","0.968457","0.0315127","-0.247181"
"10","159999070196856","12.9769","-0.556625","-7.86449","0","0","0","0.105181","-0.954869","0.277781","-0.247403","-0.295674","-0.922697","0.963187","0.0283263","-0.267336"
"10","159999087012041","12.2681","-1.97435","-8.15186","0","0","0","0.107859","-0.948036","0.299324","-0.269734","-0.317693","-0.909019","0.956875","0.0173081","-0.289983"
"10","159999103766192","9.27936","-1.57202","-5.22064","0","0","0","0.102435","-0.949627","0.296168","-0.287705","-0.313293","-0.905027","0.952225","0.00749739","-0.305305"
"10","159999120550860","7.70837","-0.824844","-3.68797","0","0","0","0.0758063","-0.971266","0.2256","-0.303011","-0.23799","-0.922792","0.949967","0.00159424","-0.312345"
"10","159999137335528","7.8808","-0.0393524","-3.51555","0","0","0","0.0865529","-0.962027","0.258868","-0.30505","-0.272954","-0.912382","0.948395","1.74248e-06","-0.317091"
"10","159999154089678","9.20273","0.458755","-3.59218","0","0","0","0.0858444","-0.964805","0.24856","-0.308716","-0.262961","-0.914082","0.947273","0.00173446","-0.320424"
"10","159999170965899","9.85411","0.669495","-3.28566","0","0","0","0.0719253","-0.977748","0.197066","-0.313089","-0.209724","-0.926278","0.946996","0.00492376","-0.321206"
"10","159999187689532","10.563","0.305496","-3.09407","0","0","0","0.086384","-0.968157","0.234967","-0.307412","-0.250243","-0.918083","0.947647","0.00707592","-0.31924"
"10","159999204474200","10.7737","-0.288422","-3.74545","0","0","0","0.0910621","-0.96333","0.252395","-0.305384","-0.26825","-0.913664","0.947865","0.00612284","-0.318613"
"10","159999221289385","9.70084","-0.0202026","-3.97536","0","0","0","0.0703952","-0.97872","0.192746","-0.314193","-0.205145","-0.92693","0.946746","0.00469195","-0.321948"
"10","159999238074053","8.05322","0.937714","-3.78377","0","0","0","0.0815686","-0.973481","0.213733","-0.31591","-0.228643","-0.920827","0.945276","0.00759006","-0.326182"
"10","159999254858721","7.42101","1.32088","-3.13239","0","0","0","0.111214","-0.954099","0.278077","-0.310611","-0.299166","-0.902231","0.944008","0.0139671","-0.329625"
"10","159999271612871","7.09532","0.995193","-2.86417","0","0","0","0.10249","-0.966759","0.234249","-0.316176","-0.254937","-0.913805","0.943148","0.0195918","-0.331795"
"10","159999288428057","7.72754","0.248016","-2.21278","0","0","0","0.0963951","-0.972591","0.211599","-0.317255","-0.231524","-0.919645","0.943428","0.0215184","-0.330877"
"10","159999305212725","8.1107","-0.0968323","-2.11699","0","0","0","0.0939227","-0.973237","0.209735","-0.314593","-0.228885","-0.921218","0.944569","0.0205423","-0.32767"
"10","159999321966875","8.4364","-0.288422","-2.2511","0","0","0","0.0983544","-0.967501","0.232954","-0.309631","-0.252222","-0.916795","0.945756","0.0180409","-0.324375"
"10","159999338782061","8.24481","0.171387","-2.19363","0","0","0","0.102702","-0.96224","0.252083","-0.304569","-0.27167","-0.912926","0.946937","0.0169826","-0.320969"
"10","159999355566729","8.2065","0.650345","-2.30858","0","0","0","0.119466","-0.946484","0.299827","-0.295149","-0.322194","-0.899488","0.947953","0.0189642","-0.317845"
"10","159999372320879","8.07239","1.14845","-2.21278","0","0","0","0.120002","-0.949978","0.288343","-0.292923","-0.311393","-0.904008","0.948575","0.0240198","-0.315638"
"10","159999389136065","7.34438","1.43584","-1.8871","0","0","0","0.124723","-0.950544","0.284449","-0.28886","-0.309055","-0.906115","0.949212","0.0308472","-0.31312"
"10","159999405890215","7.45932","1.26341","-1.71468","0","0","0","0.109175","-0.969758","0.21829","-0.292068","-0.241205","-0.925482","0.950146","0.0372843","-0.309568"
"10","159999422705401","8.49387","1.03351","-1.69551","0","0","0","0.131415","-0.951016","0.279819","-0.27806","-0.306298","-0.91042","0.951532","0.0418366","-0.304692"
"10","159999439490069","9.47095","0.880249","-1.21655","0","0","0","0.144488","-0.935361","0.322836","-0.262604","-0.350807","-0.898874","0.954024","0.0450982","-0.296317"
"10","159999456274737","9.64337","0.343811","-1.23572","0","0","0","0.122114","-0.959513","0.253817","-0.263651","-0.277903","-0.92372","0.956858","0.0458799","-0.286912"
"10","159999473059405","9.73917","-0.345886","-1.17824","0","0","0","0.140803","-0.928309","0.344118","-0.243144","-0.36936","-0.896914","0.959716","0.0426175","-0.27772"
"10","159999489844073","9.79663","-0.499161","-0.967499","0","0","0","0.140757","-0.914843","0.378484","-0.231102","-0.40209","-0.885955","0.962694","0.037236","-0.268019"
"10","159999506659258","9.33684","0.535385","-1.75299","0","0","0","0.127824","-0.928952","0.347433","-0.229583","-0.368506","-0.90083","0.964859","0.0353827","-0.260375"
"10","159999523443926","9.35599","0.918564","-1.98289","0","0","0","0.128346","-0.930863","0.342085","-0.226745","-0.363344","-0.903641","0.965461","0.0384126","-0.257702"
"10","159999540167559","10.448","0.726974","-2.09784","0","0","0","0.125086","-0.937373","0.325094","-0.22527","-0.345943","-0.910811","0.966233","0.0406956","-0.254435"
"10","159999556952227","12.3447","0.61203","-1.1974","0","0","0","0.136939","-0.913489","0.383125","-0.209234","-0.404716","-0.890183","0.96823","0.0417381","-0.246554"
"10","159999573736895","13.1302","0.248016","0.0862122","0","0","0","0.138277","-0.895516","0.423002","-0.189186","-0.443124","-0.87627","0.972156","0.0411419","-0.230693"
"10","159999590552080","12.9003","-0.882324","0.239471","0","0","0","0.129043","-0.88728","0.442811","-0.17352","-0.459859","-0.870873","0.976339","0.0355436","-0.213303"
"10","159999607336748","13.111","-0.997269","-1.96373","0","0","0","0.118441","-0.88356","0.453093","-0.167776","-0.467552","-0.867898","0.978684","0.0267771","-0.203618"
"10","159999624121416","13.475","2.22133","-7.63458","0","0","0","0.137066","-0.858048","0.49494","-0.172657","-0.512702","-0.841027","0.975399","0.0298207","-0.218422"
"10","159999640875567","14.682","5.74644","-9.05229","0","0","0","0.165322","-0.869558","0.465336","-0.190482","-0.491097","-0.850024","0.96767","0.0518894","-0.246824"
"10","159999657690752","10.4863","3.71567","-7.51964","0","0","0","0.179583","-0.898571","0.400401","-0.213915","-0.432948","-0.875669","0.960203","0.0716031","-0.269968"
"10","159999674475420","8.1107","1.51247","-6.17856","0","0","0","0.174572","-0.931282","0.319748","-0.24498","-0.355603","-0.90196","0.953682","0.0791249","-0.290224"
"10","159999690710772","7.63174","-0.173462","-4.12862","0","0","0","0.184921","-0.919626","0.346544","-0.250695","-0.385102","-0.888171","0.95024","0.0773646","-0.301759"
"10","159999708014239","6.99953","-1.41875","-3.38144","0","0","0","0.179302","-0.920669","0.346727","-0.259861","-0.384244","-0.885906","0.948853","0.068744","-0.308142"
"10","159999724829424","7.22942","-1.70613","-3.32397","0","0","0","0.177358","-0.911749","0.370484","-0.264575","-0.406766","-0.874381","0.947916","0.0570573","-0.313369"
"10","159999741614092","8.97282","-1.09306","-3.80293","0","0","0","0.188647","-0.882337","0.431153","-0.260238","-0.468255","-0.844401","0.946936","0.0470909","-0.317953"
"10","159999758398760","10.563","0.61203","-4.64589","0","0","0","0.169192","-0.913026","0.371157","-0.277933","-0.405501","-0.870817","0.945583","0.0441787","-0.322367"
"10","159999775183428","10.7162","2.5087","-5.27812","0","0","0","0.183149","-0.90547","0.382858","-0.278393","-0.421274","-0.863149","0.942843","0.0514999","-0.329233"
"10","159999791937579","9.72","3.04514","-4.76083","0","0","0","0.187918","-0.917828","0.349683","-0.285871","-0.391723","-0.874546","0.939662","0.0643784","-0.335992"
"10","159999808752764","9.37515","2.02974","-4.30104","0","0","0","0.172382","-0.947527","0.269215","-0.303261","-0.311082","-0.9007","0.937186","0.0736222","-0.340973"
"10","159999825537432","8.53218","0.74614","-4.03282","0","0","0","0.190123","-0.931783","0.309246","-0.298324","-0.354928","-0.886019","0.935337","0.0761973","-0.345453"
"10","159999842352618","7.70837","-0.0776672","-3.55386","0","0","0","0.181194","-0.940906","0.286119","-0.30796","-0.330588","-0.892117","0.933986","0.0735331","-0.349663"
"10","159999859076250","7.84248","-0.65242","-2.97913","0","0","0","0.175048","-0.942917","0.283311","-0.311908","-0.326042","-0.892418","0.933848","0.0678497","-0.351176"
"10","159999875860918","8.09155","-0.767365","-2.90248","0","0","0","0.15729","-0.954237","0.254345","-0.319456","-0.292868","-0.901208","0.934456","0.0604992","-0.350902"
"10","159999892676104","8.28313","-0.57579","-2.90248","0","0","0","0.166888","-0.938981","0.300771","-0.31262","-0.339702","-0.887057","0.935103","0.0540122","-0.350237"
"10","159999909430254","8.18733","-0.173462","-2.36606","0","0","0","0.162711","-0.93867","0.304015","-0.311313","-0.341222","-0.886934","0.936274","0.0496698","-0.347741"
"10","159999926245440","8.41724","-0.0010376","-2.61511","0","0","0","0.142395","-0.955809","0.2572","-0.317136","-0.290206","-0.902887","0.937629","0.0469991","-0.344446"
"10","159999942999590","8.45555","0.362961","-2.74922","0","0","0","0.138322","-0.958541","0.249132","-0.317019","-0.281167","-0.905784","0.938278","0.0463102","-0.342767"
"10","159999959784258","8.49387","0.439606","-2.8067","0","0","0","0.148412","-0.948446","0.280042","-0.310765","-0.313562","-0.897276","0.938828","0.046139","-0.34128"
"10","159999976599444","8.62798","0.401291","-2.63428","0","0","0","0.142137","-0.954198","0.263255","-0.311546","-0.295564","-0.903095","0.939541","0.0463471","-0.339287"
"10","159999993353594","8.66629","0.248016","-2.30858","0","0","0","0.133695","-0.960672","0.24338","-0.311674","-0.273883","-0.909861","0.940736","0.0457888","-0.336034"
"10","160000010168780","8.66629","0.0947571","-1.98289","0","0","0","0.139038","-0.953167","0.268592","-0.303567","-0.299192","-0.904617","0.942611","0.0442404","-0.330949"
"10","160000026922930","8.76208","0.171387","-1.69551","0","0","0","0.1139","-0.972506","0.203123","-0.306902","-0.228896","-0.923806","0.944901","0.0428829","-0.324535"
"10","160000043707598","8.91536","0.401291","-1.54225","0","0","0","0.125088","-0.961591","0.244326","-0.294568","-0.271151","-0.916355","0.947408","0.0426538","-0.317172"
"10","160000060553301","9.33684","0.286331","-1.08244","0","0","0","0.113619","-0.969492","0.217201","-0.288925","-0.241411","-0.926414","0.950585","0.0425033","-0.30754"
"10","160000077276934","9.72","-0.671585","-1.35066","0","0","0","0.115778","-0.962336","0.245976","-0.27626","-0.269069","-0.92265","0.954084","0.0388691","-0.297007"
"10","160000093573321","9.94991","-1.26549","-2.05952","0","0","0","0.113919","-0.954378","0.276018","-0.268744","-0.297071","-0.916256","0.956451","0.0302007","-0.290325"
"10","160000110327471","10.1415","-0.863159","-2.69174","0","0","0","0.115722","-0.943063","0.311833","-0.264641","-0.331868","-0.905444","0.957378","0.0222562","-0.287978"
"10","160000127081621","10.448","-0.0393524","-2.40437","0","0","0","0.0876197","-0.969389","0.229364","-0.271984","-0.244782","-0.930649","0.958305","0.0191598","-0.285106"
"10","160000143896807","11.0036","-0.0010376","-1.71468","0","0","0","0.0951935","-0.959746","0.264248","-0.262641","-0.280262","-0.923295","0.960187","0.0184895","-0.278747"
"10","160000160681475","11.9424","-1.11221","-2.00204","0","0","0","0.10318","-0.941122","0.321936","-0.250536","-0.337818","-0.907255","0.962593","0.0129535","-0.270641"
"10","160000177435625","12.7853","-1.03558","-2.481","0","0","0","0.0993017","-0.933082","0.345683","-0.245944","-0.359636","-0.900096","0.964184","0.00436252","-0.265198"
