"id","time","accX","accY","accZ","gyroX","gyroY","gyroZ","rot1","rot2","rot3","rot4","rot5","rot6","rot7","rot8","rot9"
"3","327669654429425","0","0","0","0","0","0","0","0","0","0","0","0","0","0","0"
"3","327669669749249","9.93074","0.650345","0.00956726","0","0","0","0","0","0","0","0","0","0","0","0"
"3","327669679026593","10.0265","0.650345","0.0478973","0","0","0","0.0586401","-0.786802","0.614413","0.0395696","-0.613156","-0.78897","0.997495","0.0705773","-0.00482204"
"3","327669694926251","10.0074","0.669495","0.0862122","0","0","0","0.050336","-0.756148","0.652462","0.0454333","-0.65088","-0.75782","0.997698","0.0677891","0.00159157"
"3","327669711741437","9.94991","0.669495","0.0287323","0","0","0","0.0513164","-0.791682","0.608774","0.0436438","-0.607217","-0.793336","0.997728","0.0672803","0.0033918"
"3","327669728526104","9.98822","0.516235","-0.0862122","0","0","0","0.0516025","-0.804758","0.591356","0.0419968","-0.589872","-0.805871","0.997832","0.0657341","0.00310504"
"3","327669745280255","10.0074","0.49707","-0.0862122","0","0","0","0.0511392","-0.804252","0.592084","0.0414173","-0.590641","-0.805871","0.997832","0.0657341","0.00310504"
"3","327669762064923","10.084","0.49707","-0.143692","0","0","0","0.051096","-0.803637","0.592922","0.0414705","-0.591478","-0.805254","0.997832","0.0657341","0.00310504"
"3","327669778849591","10.1032","0.61203","-0.00958252","0","0","0","0.0487485","-0.772395","0.633269","0.042828","-0.631823","-0.773929","0.997892","0.0648495","0.00227975"
"3","327669795634259","10.1606","0.592865","0.00956726","0","0","0","0.0497508","-0.788746","0.612703","0.0399093","-0.611402","-0.790313","0.997964","0.0637712","0.00106051"
"3","327669813548077","10.2756","0.535385","-0.0670624","0","0","0","0.0490442","-0.77991","0.623967","0.0403055","-0.622665","-0.78145","0.997983","0.0634749","0.000896612"
"3","327669830088604","10.1606","0.439606","-0.143692","0","0","0","0.0507097","-0.810186","0.583976","0.0370205","-0.582801","-0.811771","0.998027","0.0627837","0.000439787"
"3","327669845988263","9.87326","0.401291","-0.201172","0","0","0","0.0482145","-0.777097","0.627532","0.0384435","-0.626353","-0.778591","0.998097","0.0616639","-0.000325013"
"3","327669862925519","9.79663","0.420441","-0.124527","0","0","0","0.0491559","-0.798311","0.600236","0.035314","-0.599197","-0.799822","0.998167","0.0605127","-0.00126254"
"3","327669879618634","9.94991","0.63118","-0.201172","0","0","0","0.0479033","-0.778604","0.625685","0.0356345","-0.624673","-0.780073","0.998216","0.0596641","-0.00217875"
"3","327669896342267","10.084","0.68866","-0.182007","0","0","0","0.0470007","-0.746913","0.663259","0.0371838","-0.662224","-0.748382","0.998203","0.059837","-0.00335196"
"3","327669913279522","10.2564","0.592865","-0.162857","0","0","0","0.0511193","-0.804176","0.59219","0.0321378","-0.591333","-0.805787","0.998175","0.0602229","-0.00438407"
"3","327669929942120","10.1223","0.477921","-0.143692","0","0","0","0.0492853","-0.763229","0.644246","0.0346864","-0.643332","-0.764801","0.998182","0.06004","-0.00523312"
"3","327669946726788","9.98822","0.420441","-0.220322","0","0","0","0.0492281","-0.763571","0.643845","0.0336653","-0.642992","-0.765133","0.99822","0.0593412","-0.00594741"
"3","327669963633526","9.89243","0.439606","-0.182007","0","0","0","0.0494277","-0.770105","0.636","0.0318922","-0.635237","-0.771659","0.998268","0.0584248","-0.00683794"
"3","327669980296124","9.87326","0.477921","-0.182007","0","0","0","0.0493168","-0.770083","0.636034","0.0308919","-0.635328","-0.771624","0.998305","0.0577023","-0.00754305"
"3","327669997050274","10.0265","0.439606","-0.124527","0","0","0","0.049905","-0.784914","0.617592","0.0289233","-0.616967","-0.786457","0.998335","0.0571109","-0.00808748"
"3","327670014842022","10.0457","0.401291","0.00956726","0","0","0","0.0482301","-0.761994","0.645786","0.030107","-0.645135","-0.763475","0.998382","0.0562651","-0.00817362"
"3","327670030650128","9.94991","0.458755","-0.143692","0","0","0","0.0473323","-0.75957","0.648701","0.0298351","-0.648064","-0.761001","0.998434","0.055374","-0.00801253"
"3","327670047465313","9.91159","0.458755","-0.258636","0","0","0","0.0473908","-0.760827","0.647222","0.0288931","-0.646635","-0.762253","0.998458","0.054824","-0.0086619"
"3","327670064249981","9.98822","0.362961","-0.392746","0","0","0","0.0474485","-0.753214","0.656062","0.0281557","-0.655532","-0.754643","0.998477","0.0542785","-0.00989677"
"3","327670081889142","10.1415","0.248016","-0.431061","0","0","0","0.0498216","-0.806356","0.589328","0.0219738","-0.589033","-0.80781","0.998516","0.0531962","-0.0116278"
"3","327670097971905","10.2948","0.248016","-0.316116","0","0","0","0.0494268","-0.803194","0.593664","0.0199489","-0.593478","-0.804603","0.998579","0.0516119","-0.0133109"
"3","327670114665020","10.2181","0.286331","-0.182007","0","0","0","0.0475983","-0.766532","0.640439","0.0211304","-0.64025","-0.767876","0.998643","0.0500823","-0.0142777"
"3","327670132334698","10.1032","0.267181","-0.105377","0","0","0","0.0468406","-0.77053","0.63568","0.0199233","-0.635531","-0.771818","0.998704","0.0488173","-0.0144171"
"3","327670148295392","9.79663","0.286331","-0.00958252","0","0","0","0.0458009","-0.772551","0.633299","0.0192491","-0.633164","-0.773778","0.998765","0.0476302","-0.0141286"
"3","327670164927472","9.79663","0.343811","-0.00958252","0","0","0","0.0441186","-0.754262","0.65509","0.0204022","-0.654911","-0.755431","0.998818","0.0466938","-0.0135052"
"3","327670181742657","10.0074","0.420441","-0.0478973","0","0","0","0.044009","-0.776515","0.62856","0.0189024","-0.628409","-0.777653","0.998852","0.046105","-0.0129777"
"3","327670198618878","10.2373","0.535385","-0.0287476","0","0","0","0.0431813","-0.760282","0.648156","0.020147","-0.647966","-0.761402","0.998864","0.0459367","-0.0126626"
"3","327670215311993","10.1798","0.55455","-0.0478973","0","0","0","0.0439046","-0.782867","0.620638","0.0191055","-0.620465","-0.784001","0.998853","0.0462789","-0.0122842"
"3","327670232005108","10.1415","0.477921","0.143677","0","0","0","0.0436355","-0.774482","0.631089","0.0203191","-0.630872","-0.775621","0.998841","0.0466677","-0.0117916"
"3","327670249827374","10.084","0.401291","0.239471","0","0","0","0.0426572","-0.773109","0.632837","0.021543","-0.632555","-0.774216","0.998857","0.0466591","-0.0103279"
"3","327670265665997","9.91159","0.382126","0.0670471","0","0","0","0.0398404","-0.733501","0.67852","0.0250803","-0.678111","-0.734531","0.998891","0.0462814","-0.0086198"
"3","327670283549298","9.83495","0.477921","0.0862122","0","0","0","0.0395246","-0.748615","0.661826","0.0247253","-0.661408","-0.749619","0.998913","0.0459922","-0.0076322"
"3","327670300120343","9.85411","0.592865","0.00956726","0","0","0","0.0391229","-0.748258","0.662253","0.0256211","-0.661792","-0.74925","0.998906","0.0462805","-0.00671999"
"3","327670315958966","9.91159","0.592865","-0.0862122","0","0","0","0.0410027","-0.786389","0.616369","0.0238932","-0.61594","-0.787431","0.998873","0.0470139","-0.00646584"
"3","327670332896222","10.0265","0.49707","-0.124527","0","0","0","0.0413217","-0.779847","0.624605","0.0244454","-0.624163","-0.780912","0.998847","0.0475373","-0.00672784"
"3","327670349589337","10.1032","0.516235","-0.0862122","0","0","0","0.0401583","-0.741037","0.670262","0.0266732","-0.669769","-0.74209","0.998837","0.0476791","-0.00713096"
"3","327670366343487","10.0457","0.477921","-0.182007","0","0","0","0.0414494","-0.766683","0.640686","0.0249362","-0.640244","-0.767767","0.998829","0.0477998","-0.00741955"
"3","327670383158673","9.8158","0.458755","-0.296951","0","0","0","0.0426612","-0.787537","0.614788","0.0229994","-0.614412","-0.78865","0.998825","0.0477845","-0.00809869"
"3","327670399912823","9.89243","0.458755","-0.546021","0","0","0","0.0425583","-0.764301","0.643454","0.0234891","-0.643094","-0.765427","0.998818","0.0476894","-0.00941625"
"3","327670416697491","9.93074","0.477921","-0.488541","0","0","0","0.0437547","-0.758811","0.64984","0.0220697","-0.64957","-0.759982","0.998798","0.0475946","-0.011675"
"3","327670433634747","10.1223","0.49707","-0.220322","0","0","0","0.0458149","-0.783523","0.619672","0.0189106","-0.619532","-0.784744","0.998771","0.0476713","-0.0135669"
"3","327670450297345","10.2181","0.343811","-0.124527","0","0","0","0.0463119","-0.791946","0.608832","0.0178432","-0.608733","-0.793175","0.998768","0.0475969","-0.0140607"
"3","327670467082013","10.1415","0.324646","-0.411911","0","0","0","0.0445949","-0.748278","0.661884","0.0203072","-0.661728","-0.749469","0.998799","0.0468635","-0.0143143"
"3","327670483897198","9.98822","0.248016","-0.69928","0","0","0","0.046126","-0.785093","0.617658","0.0157258","-0.617668","-0.786281","0.998812","0.0459811","-0.0161444"
"3","327670500834454","9.85411","0.209702","-0.75676","0","0","0","0.0465021","-0.756819","0.651968","0.0146223","-0.652088","-0.758002","0.998811","0.0447819","-0.019257"
"3","327670517466534","9.98822","0.286331","-0.69928","0","0","0","0.0481468","-0.786149","0.616158","0.00917634","-0.6165","-0.787302","0.998798","0.0435601","-0.0224685"
"3","327670535166729","10.2564","0.343811","-0.69928","0","0","0","0.0491189","-0.780506","0.623216","0.00700218","-0.623685","-0.781645","0.998768","0.0427574","-0.0251694"
"3","327670551920880","10.4097","0.286331","-0.62265","0","0","0","0.0500401","-0.76847","0.637927","0.00574193","-0.638495","-0.769605","0.998731","0.042174","-0.0275379"
"3","327670567942608","10.2756","0.286331","-0.584335","0","0","0","0.0505544","-0.76278","0.644679","0.00432122","-0.645331","-0.763891","0.998712","0.0414038","-0.0293282"
"3","327670584544171","9.93074","0.228867","-0.507706","0","0","0","0.0509014","-0.754466","0.654363","0.00327013","-0.655083","-0.75555","0.998698","0.0405984","-0.0308774"
"3","327670601328839","9.77748","0.324646","-0.62265","0","0","0","0.0510544","-0.725644","0.686173","0.00381863","-0.686922","-0.726721","0.998689","0.0397226","-0.0322995"
"3","327670618174542","9.94991","0.458755","-0.431061","0","0","0","0.0519451","-0.803219","0.593415","-0.00393679","-0.594378","-0.804177","0.998642","0.0394369","-0.0340371"
"3","327670634898175","10.1032","0.458755","-0.201172","0","0","0","0.0526892","-0.778133","0.625886","-0.00203986","-0.626839","-0.779146","0.998609","0.0397759","-0.034615"
"3","327670651713360","10.1798","0.324646","-0.220322","0","0","0","0.0524797","-0.770627","0.635122","-0.000773625","-0.63603","-0.771664","0.998622","0.0400054","-0.0339748"
"3","327670662272442","10.1606","0.248016","-0.316116","0","0","0","0.0524797","-0.770627","0.635122","-0.000773625","-0.63603","-0.771664","0.998622","0.0400054","-0.0339748"
"3","327670677012433","9.93074","0.286331","-0.335281","0","0","0","0.0517394","-0.777094","0.627254","-0.00118223","-0.628143","-0.778097","0.99866","0.0395167","-0.0334184"
"3","327670693827618","9.72","0.458755","-0.354431","0","0","0","0.0510123","-0.781664","0.621611","-0.00196354","-0.622498","-0.782619","0.998696","0.0387026","-0.0332899"
"3","327670702982892","9.68169","0.535385","-0.450226","0","0","0","0.0513223","-0.761784","0.645795","-0.000594171","-0.646671","-0.762769","0.998682","0.0387634","-0.0336413"
"3","327670718821515","10.0265","0.650345","-0.62265","0","0","0","0.0522154","-0.811338","0.582241","-0.00477798","-0.583233","-0.812291","0.998624","0.0396321","-0.0343303"
"3","327670735667218","10.1798","0.707825","-0.56517","0","0","0","0.0544006","-0.78789","0.613408","-0.00309009","-0.614448","-0.788952","0.998514","0.041024","-0.035861"
"3","327670753489483","10.0648","0.765289","-0.373596","0","0","0","0.0565286","-0.761559","0.645625","-0.000684408","-0.646689","-0.762754","0.998401","0.0426755","-0.0370776"
"3","327670770030011","10.0074","0.803604","-0.239487","0","0","0","0.0580211","-0.78329","0.618943","-0.0016369","-0.620061","-0.784552","0.998314","0.0445074","-0.0372588"
"3","327670786845196","10.0074","0.765289","-0.105377","0","0","0","0.0589735","-0.747761","0.661343","0.00336972","-0.662344","-0.749193","0.998254","0.046411","-0.0365409"
"3","327670802897442","10.0457","0.669495","-0.143692","0","0","0","0.0595268","-0.780135","0.622773","0.00233879","-0.623769","-0.781606","0.998224","0.047983","-0.0353064"
"3","327670819529522","10.1223","0.726974","-0.124527","0","0","0","0.0595568","-0.764168","0.642262","0.0053638","-0.64315","-0.765721","0.99821","0.0490489","-0.0342051"
"3","327670837290753","10.1606","0.765289","-0.182007","0","0","0","0.059406","-0.74096","0.668916","0.00918518","-0.669666","-0.742606","0.998192","0.0502593","-0.0329763"
"3","327670853159894","10.1223","0.822769","-0.258636","0","0","0","0.0605649","-0.7995","0.597605","0.00524394","-0.598441","-0.80115","0.99815","0.0516554","-0.032052"
"3","327670869883526","9.98822","0.707825","-0.296951","0","0","0","0.0613701","-0.779664","0.623183","0.00830606","-0.62394","-0.781428","0.99808","0.0531326","-0.0318153"
"3","327670886668194","9.8158","0.650345","-0.277802","0","0","0","0.062251","-0.787307","0.61341","0.00807512","-0.614185","-0.789121","0.998028","0.0540769","-0.031876"
"3","327670903574933","9.72","0.55455","-0.296951","0","0","0","0.0620567","-0.744501","0.66473","0.0125795","-0.665378","-0.746401","0.997993","0.0546812","-0.0319256"
"3","327670920268048","9.66252","0.324646","-0.62265","0","0","0","0.0628865","-0.786271","0.614674","0.00823171","-0.615463","-0.788123","0.997987","0.0546221","-0.032232"
"3","327670937022198","9.62421","0.0564423","-0.62265","0","0","0","0.0628515","-0.782496","0.619475","0.00653738","-0.620367","-0.784285","0.998001","0.0533432","-0.0338755"
"3","327670953867901","9.3943","-0.173462","-0.584335","0","0","0","0.0619471","-0.81263","0.579479","0.000446768","-0.580571","-0.81421","0.998079","0.0506968","-0.0356016"
"3","327670970744122","9.18356","-0.269257","-0.411911","0","0","0","0.0598198","-0.78049","0.6223","0.000523787","-0.623392","-0.78191","0.998209","0.0470996","-0.0368824"
"3","327670987406720","9.37515","-0.269257","-0.258636","0","0","0","0.0570659","-0.755297","0.652894","7.37682e-05","-0.653956","-0.756532","0.99837","0.0432203","-0.0372628"
"3","327671005015362","10.4289","-0.192627","0.00956726","0","0","0","0.0536995","-0.758505","0.649451","-0.00200491","-0.650469","-0.75953","0.998555","0.0394843","-0.0364506"
"3","327671021891583","10.7737","0.113907","-0.354431","0","0","0","0.0500835","-0.769305","0.636915","-0.00364954","-0.637852","-0.77015","0.998738","0.0362474","-0.0347535"
"3","327671037852276","10.7162","0.592865","-0.910019","0","0","0","0.0494524","-0.737385","0.673659","-0.00236183","-0.674569","-0.738208","0.998774","0.0349151","-0.0351007"
"3","327671054514874","10.4672","1.11014","-1.02498","0","0","0","0.0526418","-0.741761","0.668595","-0.00403628","-0.669676","-0.742642","0.998605","0.0363954","-0.038247"
"3","327671071299542","10.1223","0.707825","-0.718445","0","0","0","0.0617879","-0.794489","0.604127","-0.0078603","-0.605652","-0.795691","0.998058","0.0444154","-0.0436669"
"3","327671088084210","10.1223","0.707825","-0.718445","0","0","0","0.0617879","-0.794489","0.604127","-0.0078603","-0.605652","-0.795691","0.998058","0.0444154","-0.0436669"
"3","327671104899395","10.1223","0.0564423","-0.833389","0","0","0","0.0636934","-0.797468","0.599989","-0.00891141","-0.601641","-0.798717","0.99793","0.0455262","-0.0454271"
"3","327671121745099","10.1223","-0.479996","-0.68013","0","0","0","0.0629944","-0.798765","0.598337","-0.0120784","-0.600094","-0.799839","0.997941","0.0431584","-0.0474503"
"3","327671138499249","10.2373","-0.59494","-0.641815","0","0","0","0.0592729","-0.831786","0.551923","-0.0191972","-0.553743","-0.832466","0.998057","0.0387473","-0.0487899"
"3","327671155253399","10.2373","-0.460846","-0.0862122","0","0","0","0.0568666","-0.77257","0.632378","-0.0167146","-0.63405","-0.773111","0.998242","0.0333943","-0.0489695"
"3","327671172038067","9.98822","-0.135147","-0.0478973","0","0","0","0.0514843","-0.801256","0.596102","-0.0203198","-0.597611","-0.801529","0.998467","0.0291534","-0.047049"
"3","327671188853253","9.8158","-0.0202026","0.0478973","0","0","0","0.0485913","-0.791036","0.609837","-0.0191664","-0.611184","-0.791256","0.998635","0.0267598","-0.0448595"
"3","327671205729474","9.85411","0.0181122","0.00956726","0","0","0","0.0450785","-0.814044","0.579051","-0.019905","-0.580257","-0.81419","0.998785","0.0251765","-0.0423607"
"3","327671222422589","10.1032","-0.0585175","0.0670471","0","0","0","0.0436149","-0.780045","0.624201","-0.0162532","-0.625267","-0.780241","0.998916","0.0238848","-0.0399492"
"3","327671239146222","10.2181","-0.0776672","-0.182007","0","0","0","0.0401607","-0.80934","0.585966","-0.0174721","-0.586918","-0.809458","0.99904","0.0222704","-0.0377119"
"3","327671255991925","10.0648","-0.0010376","-0.182007","0","0","0","0.0389484","-0.845557","0.532463","-0.0200294","-0.533421","-0.845613","0.99904","0.0222704","-0.0377119"
"3","327671272807110","9.93074","-0.0776672","-0.0862122","0","0","0","0.0374645","-0.833134","0.551801","-0.0190074","-0.552683","-0.833175","0.999117","0.0207262","-0.0365417"
"3","327671289530743","9.8158","-0.384201","0.258636","0","0","0","0.0358763","-0.831234","0.554763","-0.0185437","-0.555579","-0.831257","0.999184","0.0195351","-0.0353463"
"3","327671306315411","9.98822","-0.460846","0.373581","0","0","0","0.0343422","-0.807306","0.589133","-0.0165852","-0.58986","-0.807335","0.999272","0.0179548","-0.0336464"
"3","327671323039044","10.0265","-0.211777","0.220322","0","0","0","0.0247748","-0.833493","0.551975","-0.0160299","-0.552404","-0.833422","0.999565","0.0117998","-0.0270465"
"3","327671339854229","9.98822","-0.0202026","0.335266","0","0","0","0.0218822","-0.833663","0.55184","-0.0146833","-0.55218","-0.833595","0.999653","0.0101381","-0.0243239"
"3","327671356730450","10.0074","-0.0776672","0.258636","0","0","0","0.0196402","-0.837492","0.546096","-0.0127269","-0.546366","-0.837449","0.999726","0.00949754","-0.0213894"
"3","327671373423565","10.0648","-0.211777","0.201157","0","0","0","0.0201266","-0.815304","0.578684","-0.0119428","-0.578956","-0.815271","0.999726","0.00949754","-0.0213894"
"3","327671390208233","10.1032","-0.307571","0.201157","0","0","0","0.0156521","-0.793784","0.607999","-0.00918782","-0.608162","-0.79376","0.999835","0.00683782","-0.0168121"
"3","327671406962384","10.1606","-0.365051","0.201157","0","0","0","0.0155929","-0.797663","0.602902","-0.00928789","-0.603064","-0.797638","0.999835","0.00683782","-0.0168121"
"3","327671423777569","10.3331","-0.441681","0.373581","0","0","0","0.0100403","-0.754834","0.655839","-0.00789196","-0.655911","-0.754797","0.999918","0.00240257","-0.0125427"
"3","327671440653790","10.3714","-0.614105","0.411896","0","0","0","0.00939922","-0.803349","0.595435","-0.00864558","-0.595504","-0.803306","0.999918","0.00240257","-0.0125427"
"3","327671457377423","10.3522","-0.7099","0.411896","0","0","0","0.0056556","-0.797922","0.602735","-0.008056","-0.602761","-0.797881","0.999952","-0.000343134","-0.00983703"
"3","327671474131573","10.4289","-0.78653","0.431061","0","0","0","-0.00315968","-0.806278","0.591528","-0.00822504","-0.59149","-0.806271","0.999961","-0.0074129","-0.00476275"
"3","327671490916241","10.4672","-0.63327","0.71843","0","0","0","-0.00315968","-0.806278","0.591528","-0.00822504","-0.59149","-0.806271","0.999961","-0.0074129","-0.00476275"
"3","327671507792462","10.4097","-0.479996","1.12076","0","0","0","-0.00740016","-0.77895","0.627042","-0.00864991","-0.626986","-0.778983","0.999935","-0.0111885","-0.00209806"
"3","327671524485577","10.5438","-0.499161","1.40813","0","0","0","-0.0119602","-0.768429","0.639823","-0.0074225","-0.639783","-0.76852","0.999901","-0.0139408","0.00194829"
"3","327671541300763","10.9461","-0.441681","1.59972","0","0","0","-0.0174038","-0.798803","0.601341","-0.00319798","-0.601385","-0.798953","0.999843","-0.0158279","0.0079118"
"3","327671558054913","11.4826","-0.173462","1.42729","0","0","0","-0.0292499","-0.753665","0.656607","0.00494829","-0.656989","-0.753884","0.99956","-0.0188019","0.0229462"
"3","327671574870099","12.1339","-1.3038","-0.450226","0","0","0","-0.0327663","-0.767352","0.640389","0.00973784","-0.640947","-0.767523","0.999416","-0.0189129","0.0284739"
"3","327671591654767","12.6512","-2.43414","-1.04413","0","0","0","-0.0349198","-0.706989","0.706362","-0.000282014","-0.706787","-0.707427","0.99939","-0.0249024","0.0244815"
"3","327671608408917","10.9845","-2.47246","-0.335281","0","0","0","-0.0348758","-0.747407","0.66345","0.00177612","-0.663899","-0.74782","0.99939","-0.0249024","0.0244815"
"3","327671625193585","8.85788","-1.68697","-0.56517","0","0","0","-0.0439512","-0.731109","0.680843","-0.0210175","-0.680674","-0.732285","0.998813","-0.0464945","0.0145504"
"3","327671641978253","7.57426","-0.614105","-1.00581","0","0","0","-0.0446554","-0.699421","0.713313","-0.0301454","-0.712757","-0.700763","0.998547","-0.0527959","0.0107441"
"3","327671658854474","6.69299","0.362961","-2.38521","0","0","0","-0.0407801","-0.709351","0.703675","-0.0348746","-0.702821","-0.710511","0.998559","-0.0535151","0.00392278"
"3","327671675639142","6.88457","1.26341","-3.26649","0","0","0","-0.0291154","-0.728406","0.684527","-0.0407374","-0.683384","-0.728922","0.998746","-0.0491087","-0.00977635"
"3","327671693522442","8.49387","1.64658","-2.55763","0","0","0","-0.0107247","-0.729295","0.684115","-0.0470672","-0.683028","-0.728874","0.998834","-0.0400164","-0.0270007"
"3","327671709086407","10.5821","1.24425","-2.2511","0","0","0","0.00145955","-0.791801","0.610778","-0.049489","-0.610087","-0.790787","0.998774","-0.0290726","-0.0400758"
"3","327671725901593","12.7662","-0.269257","-1.98289","0","0","0","0.0117201","-0.808803","0.587963","-0.053027","-0.587678","-0.807355","0.998524","-0.0217156","-0.0497761"
"3","327671742838849","12.3064","-1.09306","-2.17447","0","0","0","0.00623596","-0.864661","0.502317","-0.0539475","-0.501886","-0.86325","0.998524","-0.0217156","-0.0497761"
"3","327671759470929","11.0419","-1.09306","-1.31235","0","0","0","0.0175719","-0.793113","0.608821","-0.0589686","-0.608677","-0.791224","0.998105","-0.021998","-0.0574644"
"3","327671777201642","9.98822","-0.997269","-0.488541","0","0","0","0.0127585","-0.828837","0.559344","-0.0734625","-0.558655","-0.82614","0.997216","-0.0305505","-0.0680161"
"3","327671792979229","9.89243","-0.901474","-0.68013","0","0","0","0.0142532","-0.789894","0.613078","-0.0742359","-0.612284","-0.787145","0.997139","-0.0342931","-0.0673655"
"3","327671809824933","10.1415","-0.72905","-1.17824","0","0","0","0.0122469","-0.789763","0.61329","-0.076511","-0.612278","-0.786932","0.996994","-0.0372859","-0.067924"
"3","327671826640118","10.3714","-0.230942","-1.40814","0","0","0","0.0131489","-0.785357","0.618904","-0.0795699","-0.617816","-0.782286","0.996743","-0.0389599","-0.0706143"
"3","327671843516339","10.0074","0.726974","-1.59972","0","0","0","0.0153736","-0.793783","0.608007","-0.0817464","-0.607041","-0.790455","0.996535","-0.0375502","-0.0742213"
"3","327671860178937","9.52841","2.60449","-1.02498","0","0","0","0.0274847","-0.760092","0.649234","-0.0798927","-0.649072","-0.75652","0.996424","-0.0310763","-0.0785654"
"3","327671876933087","9.06862","3.50493","-0.641815","0","0","0","0.0386663","-0.775818","0.629771","-0.0720989","-0.630766","-0.772616","0.996648","-0.0155316","-0.080325"
"3","327671893839825","8.39807","3.73483","-0.507706","0","0","0","0.0515617","-0.800479","0.59714","-0.0612718","-0.599344","-0.798143","0.996788","0.00456579","-0.07995"
"3","327671910532940","8.01491","3.1026","-0.335281","0","0","0","0.0685365","-0.781349","0.62032","-0.0464899","-0.623608","-0.780354","0.996565","0.0246441","-0.0790648"
"3","327671927287091","8.07239","2.01057","0.143677","0","0","0","0.0776425","-0.812114","0.57831","-0.0394431","-0.582109","-0.812154","0.996201","0.0402473","-0.0772287"
"3","327671944926251","8.2065","1.03351","0.450211","0","0","0","0.0808029","-0.841077","0.534846","-0.0350063","-0.538665","-0.841793","0.996115","0.0492963","-0.0729686"
"3","327671960856427","8.30229","0.516235","0.737595","0","0","0","0.0819785","-0.807951","0.583519","-0.0234124","-0.586889","-0.809329","0.996359","0.052686","-0.0670284"
"3","327671977824200","8.47472","0.592865","0.948334","0","0","0","0.0768905","-0.842823","0.53267","-0.0217561","-0.535543","-0.844228","0.996802","0.0533243","-0.0595147"
"3","327671994456280","9.0303","0.899399","0.69928","0","0","0","0.0739997","-0.814204","0.575844","-0.0104183","-0.578027","-0.815951","0.997204","0.0543808","-0.0512564"
"3","327672012095440","9.64337","1.07182","0.469376","0","0","0","0.0722981","-0.805858","0.587678","-0.00255358","-0.589367","-0.807861","0.99738","0.0569062","-0.044668"
"3","327672028056134","9.8158","1.1293","0.50769","0","0","0","0.0717402","-0.805374","0.58841","0.00345829","-0.589725","-0.807597","0.997417","0.0599721","-0.0395218"
"3","327672045725812","9.83495","1.39752","0.756744","0","0","0","0.0706874","-0.766854","0.637917","0.0139429","-0.638694","-0.769334","0.997401","0.0632767","-0.0344555"
"3","327672061594952","9.64337","1.72321","1.08244","0","0","0","0.0711535","-0.793876","0.603902","0.0187304","-0.604266","-0.796562","0.997289","0.0679895","-0.0281261"
"3","327672078440655","9.47095","1.83815","1.04413","0","0","0","0.0692992","-0.749777","0.658052","0.0335049","-0.657516","-0.752695","0.997033","0.0742091","-0.0204441"
"3","327672096018780","10.0648","1.68489","0.71843","0","0","0","0.0703337","-0.761303","0.64457","0.0416656","-0.643365","-0.764425","0.996653","0.0806213","-0.0135301"
"3","327672111918438","11.3293","1.20593","0.392746","0","0","0","0.0734044","-0.797371","0.599009","0.0441932","-0.597438","-0.800696","0.996323","0.0852467","-0.00861623"
"3","327672128825177","12.4788","0.861084","-0.0862122","0","0","0","0.0703677","-0.766944","0.637844","0.0503204","-0.635886","-0.770141","0.996251","0.0862896","-0.00615286"
"3","327672145518292","12.2297","1.34004","0.622635","0","0","0","0.0698188","-0.770735","0.633319","0.0493256","-0.631424","-0.773867","0.996339","0.0852693","-0.00606831"
"3","327672163432110","11.6167","1.66573","1.82961","0","0","0","0.0691979","-0.779331","0.62278","0.052564","-0.620561","-0.782395","0.996217","0.0868758","-0.00197675"
"3","327672179911603","11.3484","1.87648","2.74921","0","0","0","0.0589591","-0.713349","0.698325","0.0691426","-0.694943","-0.715732","0.995863","0.0904829","0.00834951"
"3","327672195872296","11.5975","2.22133","2.5193","0","0","0","0.0497871","-0.690218","0.721887","0.0841459","-0.717315","-0.691649","0.995209","0.0951791","0.022366"
"3","327672212687481","14.0498","1.78069","1.58055","0","0","0","0.0507566","-0.729171","0.682447","0.0930682","-0.676901","-0.730167","0.994365","0.100575","0.0335054"
"3","327672229441632","15.046","1.5891","-2.73006","0","0","0","0.0513036","-0.742717","0.667637","0.0964575","-0.661707","-0.743532","0.994014","0.102545","0.0376926"
"3","327672246256817","14.1456","1.66573","-6.14024","0","0","0","0.0627929","-0.732001","0.678404","0.083647","-0.673494","-0.734445","0.994515","0.102864","0.0189391"
"3","327672263102520","10.3714","1.45499","-4.49263","0","0","0","0.0909762","-0.797024","0.597056","0.0520446","-0.594917","-0.8021","0.994492","0.104046","-0.0126425"
"3","327672279795636","6.63551","0.880249","-2.27026","0","0","0","0.101617","-0.741229","0.663516","0.0448209","-0.66288","-0.747383","0.993813","0.105686","-0.0341374"
"3","327672297587384","11.9041","3.25587","-2.84502","0","0","0","0.10658","-0.772104","0.626495","-0.00714919","-0.630663","-0.776024","0.994278","0.0782301","-0.0727362"
"3","327672315196026","11.9041","3.25587","-2.84502","0","0","0","0.10658","-0.772104","0.626495","-0.00714919","-0.630663","-0.776024","0.994278","0.0782301","-0.0727362"
"3","327672330302228","11.9041","3.25587","-2.84502","0","0","0","0.10658","-0.772104","0.626495","-0.00714919","-0.630663","-0.776024","0.994278","0.0782301","-0.0727362"
"3","327672346842755","11.9041","3.25587","-2.84502","0","0","0","0.10658","-0.772104","0.626495","-0.00714919","-0.630663","-0.776024","0.994278","0.0782301","-0.0727362"
"3","327672363078106","8.83871","1.1293","-0.277802","0","0","0","0.128554","-0.848403","0.513504","-0.0251224","-0.52042","-0.853541","0.991384","0.0968258","-0.0882162"
"3","327672379862774","8.83871","1.1293","-0.277802","0","0","0","0.128554","-0.848403","0.513504","-0.0251224","-0.52042","-0.853541","0.991384","0.0968258","-0.0882162"
"3","327672396647442","8.83871","1.1293","-0.277802","0","0","0","0.128554","-0.848403","0.513504","-0.0251224","-0.52042","-0.853541","0.991384","0.0968258","-0.0882162"
"3","327672413401593","7.47849","0.477921","-0.62265","0","0","0","0.124554","-0.905854","0.404864","-0.0380365","-0.412101","-0.910344","0.991483","0.0979877","-0.0857845"
"3","327672430216778","7.2869","0.401291","-1.17824","0","0","0","0.122936","-0.911045","0.393553","-0.0405285","-0.400839","-0.915251","0.991587","0.096567","-0.0862008"
"3","327672447001446","8.09155","0.726974","-0.75676","0","0","0","0.124886","-0.885386","0.447768","-0.0358513","-0.455033","-0.889753","0.991523","0.0950644","-0.0885693"
"3","327672463755597","8.47472","0.765289","-1.08244","0","0","0","0.124547","-0.888883","0.44088","-0.0375719","-0.448247","-0.89312","0.991502","0.0946707","-0.0892248"
"3","327672480540265","8.85788","0.439606","-1.17824","0","0","0","0.120974","-0.924667","0.361048","-0.0504264","-0.368975","-0.928071","0.991374","0.0940661","-0.091264"
"3","327672497324933","9.50926","0.075592","-0.775909","0","0","0","0.120588","-0.91518","0.384583","-0.05005","-0.392523","-0.91838","0.99144","0.091497","-0.0931382"
"3","327672514140118","9.72","-0.403366","-0.56517","0","0","0","0.118561","-0.892482","0.435223","-0.0448434","-0.44268","-0.895558","0.991934","0.0866609","-0.0925064"
"3","327672530894269","9.98822","-1.15054","0.0478973","0","0","0","0.105938","-0.930749","0.349977","-0.056367","-0.357013","-0.932397","0.992774","0.0790493","-0.0902848"
"3","327672547678937","10.1415","-1.59117","0.66095","0","0","0","0.0971024","-0.905079","0.41401","-0.0486054","-0.419791","-0.906318","0.994087","0.0678825","-0.0847544"
"3","327672564463604","9.87326","-1.38043","0.948334","0","0","0","0.0781768","-0.935981","0.343262","-0.0523147","-0.347692","-0.936148","0.995566","0.0552274","-0.0761471"
"3","327672581278790","9.14525","-0.59494","1.0058","0","0","0","0.0684584","-0.907207","0.415076","-0.0417078","-0.418291","-0.907355","0.996782","0.0448042","-0.0664731"
"3","327672598582257","9.16441","-0.307571","0.814224","0","0","0","0.0625153","-0.864337","0.499012","-0.0301098","-0.501396","-0.864694","0.99759","0.0390314","-0.05737"
"3","327672614878644","9.79663","-0.0776672","0.58432","0","0","0","0.0550628","-0.874133","0.482555","-0.0265604","-0.484399","-0.874444","0.99813","0.0353325","-0.0498896"
"3","327672631632794","10.5246","0.324646","0.296951","0","0","0","0.0550628","-0.874133","0.482555","-0.0265604","-0.484399","-0.874444","0.99813","0.0353325","-0.0498896"
"3","327672648966778","10.5438","0.976028","0.431061","0","0","0","0.0502132","-0.820302","0.569723","-0.0138605","-0.57096","-0.820861","0.998642","0.0333214","-0.0400395"
"3","327672665202130","10.1032","1.24425","0.392746","0","0","0","0.0505709","-0.820849","0.568901","-0.0118607","-0.503113","-0.864139","0.998689","0.0370692","-0.0352897"
"3","327672682536114","9.96906","0.765289","0.239471","0","0","0","0.0516098","-0.865811","0.497702","-0.00631225","-0.498639","-0.866787","0.998647","0.0415931","-0.0311999"
"3","327672698771466","10.3714","-0.135147","0.58432","0","0","0","0.0510373","-0.877437","0.476969","-0.00399002","-0.477767","-0.878478","0.998689","0.0429321","-0.0278849"
"3","327672715556134","11.5017","-0.748215","1.46561","0","0","0","0.0452395","-0.893553","0.446672","-0.0027593","-0.44724","-0.89441","0.998972","0.0392301","-0.0226985"
"3","327672732859601","12.1148","-1.89771","1.98288","0","0","0","0.0330497","-0.853777","0.519589","0.00593251","-0.519696","-0.854331","0.999436","0.0313179","-0.0121108"
"3","327672749644269","11.0419","-2.14677","2.04036","0","0","0","0.0158435","-0.829162","0.558783","0.00977442","-0.558698","-0.829313","0.999827","0.018601","-0.000747156"
"3","327672766428937","10.448","-0.78653","2.69174","0","0","0","-0.000512573","-0.837128","0.547006","0.0128101","-0.546967","-0.837056","0.999918","0.00657817","0.0110041"
"3","327672783244122","12.2681","0.535385","2.5193","0","0","0","-0.0116942","-0.819789","0.572546","0.0223759","-0.572657","-0.81949","0.999681","0.00322793","0.0250403"
"3","327672799479474","12.5171","-0.173462","-1.73383","0","0","0","-0.0130852","-0.864829","0.501895","0.0326469","-0.50204","-0.864228","0.999381","0.00507672","0.0348033"
"3","327672816264142","12.3447","-0.441681","-6.10191","0","0","0","-0.00635971","-0.867452","0.49748","0.0182338","-0.497508","-0.867268","0.999814","0.00355539","0.018981"
"3","327672833048810","9.79663","0.286331","-2.97913","0","0","0","0.00578263","-0.916492","0.400011","-0.00932446","-0.40005","-0.916446","0.99994","0.00156958","-0.0108591"
"3","327672849833478","7.40184","0.669495","-2.44269","0","0","0","0.0135094","-0.90782","0.419143","-0.0217367","-0.419349","-0.907565","0.999672","0.00314991","-0.0253981"
"3","327672866618145","9.31767","1.66573","-1.77214","0","0","0","0.0206716","-0.92597","0.37703","-0.0321485","-0.377531","-0.925439","0.999269","0.00700938","-0.0375727"
"3","327672883402813","11.3676","1.16762","-2.09784","0","0","0","0.0282723","-0.953027","0.301564","-0.0393716","-0.302512","-0.952332","0.998825","0.0150515","-0.0460749"
"3","327672900736798","13.3984","-0.0202026","-2.05952","0","0","0","0.0355887","-0.949944","0.310386","-0.0460418","-0.311811","-0.949028","0.998305","0.019484","-0.0548341"
"3","327672917521466","13.111","-0.978119","-1.82962","0","0","0","0.0386035","-0.931991","0.360419","-0.0512811","-0.36206","-0.930743","0.997938","0.0174473","-0.0617703"
"3","327672934336651","11.3868","-1.89771","-1.38898","0","0","0","0.0314479","-0.947959","0.316836","-0.0602655","-0.318214","-0.946101","0.997687","0.0106586","-0.0671363"
"3","327672951151837","9.16441","-2.14677","-0.75676","0","0","0","0.027872","-0.917775","0.396122","-0.0644159","-0.397101","-0.915511","0.997534","6.18702e-07","-0.0701873"
"3","327672967844952","8.41724","-1.18886","-1.59972","0","0","0","0.0199481","-0.910227","0.41363","-0.0695547","-0.413973","-0.907628","0.997379","-0.0106645","-0.0715685"
"3","327672984660138","8.68546","0.49707","-2.05952","0","0","0","0.0177282","-0.911774","0.41031","-0.0764113","-0.41041","-0.908694","0.996919","-0.0152428","-0.0769456"
"3","327673001444806","9.06862","2.0489","-2.02121","0","0","0","0.0221354","-0.924369","0.380858","-0.0820297","-0.381346","-0.920786","0.996384","-0.0108597","-0.0842669"
"3","327673018229474","9.27936","2.5087","-1.6572","0","0","0","0.0375859","-0.916051","0.399297","-0.0824834","-0.40106","-0.912331","0.995883","0.00135534","-0.0906332"
"3","327673035044659","8.95367","1.64658","-1.21655","0","0","0","0.0505821","-0.918014","0.39331","-0.0815432","-0.396295","-0.914495","0.995385","0.0141853","-0.0949032"
"3","327673051798810","8.53218","0.803604","-0.775909","0","0","0","0.0551957","-0.932807","0.356124","-0.0825491","-0.35971","-0.929405","0.995057","0.0219015","-0.0968568"
"3","327673068583478","8.30229","0.305496","-0.296951","0","0","0","0.0632059","-0.906422","0.417616","-0.0767655","-0.421629","-0.903513","0.995044","0.0250489","-0.0962314"
"3","327673085337628","8.5705","0.420441","-0.182007","0","0","0","0.0615254","-0.913176","0.402894","-0.0750973","-0.406749","-0.910448","0.995276","0.0257595","-0.0936025"
"3","327673102152813","8.74294","0.899399","-0.124527","0","0","0","0.0606615","-0.917819","0.392338","-0.0721728","-0.396066","-0.915381","0.995546","0.0272123","-0.0902675"
"3","327673118937481","8.47472","1.60826","0.00956726","0","0","0","0.0649522","-0.905437","0.419481","-0.0648894","-0.423311","-0.903658","0.995776","0.0314747","-0.0862483"
"3","327673135691632","7.86165","1.93394","0.392746","0","0","0","0.0717288","-0.892438","0.445433","-0.0553281","-0.449456","-0.891588","0.995888","0.0393076","-0.0816158"
"3","327673152506817","7.76585","1.53162","1.42729","0","0","0","0.0755199","-0.905978","0.416534","-0.0478509","-0.420538","-0.906012","0.995996","0.0484904","-0.0751109"
"3","327673169291485","8.60883","0.995193","1.82961","0","0","0","0.0778328","-0.887941","0.453324","-0.0315207","-0.456668","-0.889079","0.996468","0.0549104","-0.0635322"
"3","327673186076153","9.79663","0.669495","1.94456","0","0","0","0.0752361","-0.851971","0.518155","-0.0125353","-0.520395","-0.853834","0.997087","0.057744","-0.0498322"
"3","327673202860821","10.3522","0.535385","1.61887","0","0","0","0.068603","-0.839356","0.539235","0.0010717","-0.540446","-0.841378","0.997643","0.058299","-0.0361767"
"3","327673219645489","10.3714","0.841919","0.929169","0","0","0","0.0634195","-0.915109","0.398189","-6.52485e-05","-0.398996","-0.916953","0.997987","0.0581267","-0.0253638"
"3","327673236430157","10.2181","1.72321","0.469376","0","0","0","0.0617647","-0.869079","0.490802","0.0129726","-0.491","-0.871063","0.998006","0.0601679","-0.0190523"
"3","327673253214825","10.563","2.35542","0.258636","0","0","0","0.0668367","-0.893388","0.444287","0.0159544","-0.444269","-0.895752","0.997636","0.0669573","-0.01544"
"3","327673269999493","12.2489","1.93394","0.58432","0","0","0","0.0697245","-0.820832","0.566899","0.0325116","-0.56611","-0.823688","0.997036","0.0758621","-0.0127852"
"3","327673286814679","13.5325","1.34004","1.36981","0","0","0","0.0750255","-0.877909","0.472913","0.0312015","-0.471951","-0.881072","0.996693","0.0808586","-0.00801626"
"3","327673303599347","12.0381","1.20593","3.15154","0","0","0","0.0726518","-0.889854","0.450424","0.0388315","-0.448751","-0.892813","0.996601","0.0823551","0.00195173"
"3","327673320384015","10.7162","1.05267","4.01366","0","0","0","0.0633894","-0.870211","0.488584","0.0577001","-0.485554","-0.872301","0.996319","0.083486","0.0194324"
"3","327673337107647","12.3064","0.995193","2.9408","0","0","0","0.0491347","-0.833502","0.550327","0.0791794","-0.546008","-0.83403","0.995649","0.0845544","0.0391683"
"3","327673353922833","14.9119","0.209702","-2.11699","0","0","0","0.0374872","-0.808715","0.587004","0.0904372","-0.582261","-0.807956","0.995196","0.0833751","0.0513106"
"3","327673370738019","14.8736","-0.288422","-11.6195","0","0","0","0.0440241","-0.773784","0.631918","0.0685024","-0.628704","-0.774621","0.996679","0.0773899","0.0253279"
"3","327673387492169","12.2872","0.152222","-7.19394","0","0","0","0.0755784","-0.818615","0.569349","0.0150637","-0.569979","-0.821521","0.997026","0.0706657","-0.0307468"
"3","327673404276837","8.41724","1.28256","-2.73006","0","0","0","0.0897024","-0.87351","0.47847","-0.0222885","-0.482047","-0.875862","0.995719","0.0679025","-0.06271"
"3","327673421061505","6.80794","1.66573","-1.06329","0","0","0","0.0998233","-0.83186","0.545934","-0.0210738","-0.550319","-0.834689","0.994782","0.0718164","-0.0724651"
"3","327673437846173","8.39807","0.74614","-1.58057","0","0","0","0.106304","-0.843827","0.525981","-0.0245044","-0.53104","-0.846992","0.994032","0.0771495","-0.077129"
"3","327673454661358","10.7545","0.976028","-1.90625","0","0","0","0.107569","-0.877965","0.466483","-0.035921","-0.472332","-0.880689","0.993548","0.0779786","-0.0823458"
"3","327673471415509","11.7125","1.70406","-1.59972","0","0","0","0.111027","-0.875895","0.469553","-0.0394358","-0.475985","-0.878569","0.993035","0.0790276","-0.0873889"
"3","327673488200177","10.7737","1.56995","-2.15532","0","0","0","0.114366","-0.894868","0.431429","-0.0455254","-0.438543","-0.897556","0.992395","0.083009","-0.0908937"
"3","327673504435528","9.43263","0.420441","-2.38521","0","0","0","0.11691","-0.91527","0.385505","-0.0561045","-0.393633","-0.917554","0.991556","0.0856428","-0.0973704"
"3","327673521250714","8.41724","0.0372772","-1.67636","0","0","0","0.121208","-0.890036","0.439482","-0.0564427","-0.44821","-0.892145","0.991021","0.0833294","-0.104563"
"3","327673538584698","7.67006","0.55455","-0.69928","0","0","0","0.118892","-0.898388","0.422804","-0.0633891","-0.431824","-0.899728","0.990882","0.0801688","-0.108288"
"3","327673555338849","7.53595","0.68866","-0.182007","0","0","0","0.114291","-0.922066","0.369772","-0.0693414","-0.378708","-0.922915","0.991024","0.07984","-0.10722"
"3","327673572123517","7.80417","0.362961","-0.488541","0","0","0","0.115297","-0.91025","0.397683","-0.0628504","-0.406236","-0.911604","0.991341","0.0801107","-0.104047"
"3","327673588938702","8.34061","-0.499161","-0.450226","0","0","0","0.113989","-0.898378","0.424173","-0.0589137","-0.432317","-0.899795","0.991734","0.0775767","-0.102206"
"3","327673605723370","9.08778","-0.863159","-0.277802","0","0","0","0.101259","-0.933402","0.344249","-0.0688991","-0.351776","-0.933545","0.992471","0.070811","-0.099931"
"3","327673622508038","9.01114","-0.767365","0.105362","0","0","0","0.0925402","-0.933205","0.347226","-0.0682022","-0.353844","-0.932815","0.99337","0.0626412","-0.0963914"
"3","327673639292706","9.10693","-1.01643","0.143677","0","0","0","0.0910578","-0.881724","0.462895","-0.054872","-0.468562","-0.881725","0.994333","0.054888","-0.0910482"
"3","327673656046856","9.52841","-0.901474","0.181992","0","0","0","0.0779252","-0.906677","0.414565","-0.0584505","-0.419269","-0.905979","0.995244","0.0463671","-0.0856674"
"3","327673672831524","9.50926","-0.115982","0.201157","0","0","0","0.0698069","-0.902288","0.425446","-0.0556986","-0.429346","-0.901421","0.996004","0.0392287","-0.0802275"
"3","327673689616192","9.06862","0.880249","0.277786","0","0","0","0.0642379","-0.912986","0.402902","-0.0532806","-0.406297","-0.912186","0.996511","0.0371301","-0.0747442"
"3","327673706431378","8.93451","1.39752","0.622635","0","0","0","0.0655","-0.908496","0.412728","-0.0457842","-0.415917","-0.908249","0.996802","0.0405939","-0.0688373"
"3","327673723216046","10.3139","-0.326736","-0.162857","0","0","0","0.0627438","-0.923424","0.378617","-0.0248599","-0.380693","-0.924367","0.99772","0.048586","-0.0468424"
"3","327673739939679","10.4097","-0.537476","-0.124527","0","0","0","0.0627438","-0.923424","0.378617","-0.0248599","-0.380693","-0.924367","0.99772","0.048586","-0.0468424"
"3","327673756754864","10.4097","-0.537476","-0.124527","0","0","0","0.0627438","-0.923424","0.378617","-0.0248599","-0.380693","-0.924367","0.99772","0.048586","-0.0468424"
"3","327673773539532","10.4097","-0.537476","-0.124527","0","0","0","0.0627438","-0.923424","0.378617","-0.0248599","-0.380693","-0.924367","0.99772","0.048586","-0.0468424"
"3","327673789774884","10.5055","-0.614105","0.431061","0","0","0","0.056541","-0.937007","0.344705","-0.0271596","-0.346573","-0.93763","0.998031","0.0436524","-0.0450443"
"3","327673807078351","11.7891","-0.479996","1.82961","0","0","0","0.0505492","-0.910727","0.409904","-0.0201192","-0.411274","-0.911289","0.998519","0.037818","-0.0391126"
"3","327673823832501","12.6512","-0.748215","2.44267","0","0","0","0.040052","-0.898024","0.438119","-0.00899809","-0.438777","-0.898551","0.999157","0.0320465","-0.0256544"
"3","327673840128888","12.6129","-2.37666","1.46561","0","0","0","0.0242099","-0.934058","0.3563","-0.00285974","-0.356467","-0.934303","0.999703","0.0216004","-0.0113012"
"3","327673857432354","10.927","-1.22717","2.34688","0","0","0","0.00825405","-0.936033","0.351816","0.00142607","-0.351816","-0.936068","0.999965","0.00822807","-0.00156906"
"3","327673873698224","10.6588","1.45499","2.38521","0","0","0","0.000403741","-0.930848","0.365406","0.012719","-0.365372","-0.930775","0.999919","0.00502341","0.011692"
"3","327673891062726","11.655","0.535385","-1.50394","0","0","0","0.00503222","-0.958268","0.285826","0.0240466","-0.285631","-0.958038","0.999698","0.0116942","0.0216058"
"3","327673907847394","11.8083","-0.250092","-8.22849","0","0","0","0.0109082","-0.956712","0.290832","0.00986266","-0.290732","-0.956754","0.999892","0.0133049","0.00626435"
"3","327673924113263","10.8312","0.420441","-7.09814","0","0","0","0.019955","-0.971926","0.234439","-0.0332429","-0.235002","-0.971426","0.999248","0.0115913","-0.0369991"
"3","327673941386212","8.85788","1.20593","-4.24356","0","0","0","0.0292967","-0.974496","0.222484","-0.0662661","-0.223983","-0.972338","0.997372","0.0137431","-0.071138"
"3","327673957652081","8.8004","1.32088","-1.63805","0","0","0","0.0358881","-0.981754","0.18674","-0.082797","-0.189139","-0.978453","0.99592","0.0196533","-0.0880741"
"3","327673974436749","10.4672","0.650345","-0.143692","0","0","0","0.0343878","-0.994459","0.0993405","-0.0881393","-0.10203","-0.990869","0.995514","0.025318","-0.0911595"
"3","327673991251935","12.0956","-0.422516","-1.10161","0","0","0","0.0365622","-0.992949","0.112758","-0.084156","-0.115492","-0.989737","0.995782","0.0266976","-0.0877854"
"3","327674008036603","12.6129","-2.12761","-0.469391","0","0","0","0.0367775","-0.981459","0.188112","-0.0816842","-0.190562","-0.978271","0.995979","0.0206125","-0.0871781"
"3","327674024821270","10.9653","-2.07013","0.162842","0","0","0","0.0236563","-0.982342","0.185592","-0.080752","-0.186915","-0.979052","0.996453","0.00817382","-0.0837478"
"3","327674041605938","8.89619","-1.13138","-0.143692","0","0","0","0.0148778","-0.975512","0.219445","-0.077119","-0.219935","-0.972462","0.996911","-0.0024553","-0.0785026"
"3","327674058390606","7.82333","-0.479996","-1.2932","0","0","0","0.0113169","-0.968857","0.247363","-0.0761828","-0.247495","-0.965889","0.99703","-0.00791394","-0.0766111"
"3","327674075175274","7.93828","-0.269257","-1.71468","0","0","0","0.00864118","-0.973527","0.22841","-0.0809652","-0.22835","-0.970207","0.996679","-0.0101095","-0.080795"
"3","327674091929425","8.34061","0.324646","-0.967499","0","0","0","0.0153672","-0.955075","0.295964","-0.0854669","-0.296171","-0.951303","0.996222","-0.0106763","-0.0861786"
"3","327674108744610","8.18733","1.01434","-0.718445","0","0","0","0.0149156","-0.966087","0.257784","-0.0864215","-0.258094","-0.962247","0.996147","-0.0079256","-0.0873403"
"3","327674125529278","7.72754","1.64658","-1.17824","0","0","0","0.0202927","-0.968742","0.24724","-0.0853848","-0.248067","-0.964973","0.996141","-0.00152865","-0.0877498"
"3","327674142313946","7.99576","2.02974","-1.25487","0","0","0","0.0300374","-0.969287","0.244091","-0.0859245","-0.245801","-0.965505","0.995849","0.00802788","-0.0906687"
"3","327674159098614","8.66629","1.99142","-0.62265","0","0","0","0.0407827","-0.970821","0.236312","-0.0860501","-0.239042","-0.967189","0.995456","0.01911","-0.093288"
"3","327674175852765","9.33684","1.64658","-0.296951","0","0","0","0.0516026","-0.967013","0.249447","-0.081817","-0.253034","-0.963992","0.995311","0.0293355","-0.0921753"
"3","327674192667950","9.14525","1.28256","-0.00958252","0","0","0","0.0597864","-0.961434","0.268458","-0.0757025","-0.272532","-0.959164","0.995336","0.037022","-0.0890766"
"3","327674209452618","8.5705","1.24425","0.58432","0","0","0","0.0616753","-0.968615","0.240794","-0.0713349","-0.244914","-0.966917","0.995544","0.0424579","-0.0842012"
"3","327674226206769","8.58966","1.47415","1.12076","0","0","0","0.0652377","-0.967002","0.246276","-0.0621464","-0.25026","-0.966182","0.995933","0.0477263","-0.076422"
"3","327674243021954","9.26021","1.53162","1.27402","0","0","0","0.0674869","-0.971989","0.225129","-0.0519425","-0.22876","-0.972096","0.996367","0.05391","-0.0659258"
"3","327674259776104","9.66252","1.32088","0.910019","0","0","0","0.0735927","-0.951524","0.298641","-0.034684","-0.301714","-0.952767","0.996685","0.0597586","-0.0552066"
"3","327674276591290","9.96906","0.937714","0.52684","0","0","0","0.0730525","-0.969316","0.234711","-0.0306427","-0.23741","-0.970926","0.996857","0.0637365","-0.0470458"
"3","327674293375958","10.2564","0.669495","0.469376","0","0","0","0.0748993","-0.944711","0.319234","-0.0183382","-0.321384","-0.946771","0.997022","0.0650583","-0.0413958"
"3","327674310679425","10.4097","0.822769","0.373581","0","0","0","0.0736661","-0.943753","0.32234","-0.0133562","-0.324123","-0.945921","0.997194","0.065377","-0.0364818"
"3","327674326914776","11.0611","2.183","-0.56517","0","0","0","0.0758938","-0.935567","0.344898","-0.00820487","-0.34647","-0.938025","0.997082","0.0683605","-0.0339711"
"3","327674344248761","15.6782","2.75775","0.392746","0","0","0","0.0941157","-0.967344","0.235345","-0.0117388","-0.237456","-0.971327","0.995492","0.0886545","-0.0337038"
"3","327674361033429","15.6782","2.75775","0.392746","0","0","0","0.0941157","-0.967344","0.235345","-0.0117388","-0.237456","-0.971327","0.995492","0.0886545","-0.0337038"
"3","327674377787579","16.4446","2.0489","-0.335281","0","0","0","0.0999611","-0.951129","0.292166","6.20391e-05","-0.293631","-0.955919","0.994991","0.0955729","-0.0292926"
"3","327674394572247","19.0884","1.24425","-1.69551","0","0","0","0.100844","-0.968556","0.227441","-0.0046331","-0.229061","-0.973401","0.994891","0.097108","-0.0275868"
"3","327674411356915","17.3067","0.63118","-9.14809","0","0","0","0.102083","-0.935967","0.336963","-0.00692653","-0.339393","-0.940619","0.994752","0.0936868","-0.0411291"
"3","327674428141583","11.7508","0.976028","-0.775909","0","0","0","0.10833","-0.942997","0.314677","-0.0433599","-0.320721","-0.946181","0.993169","0.0888556","-0.075632"
"3","327674444956769","5.54349","1.4933","1.5614","0","0","0","0.107113","-0.95135","0.288896","-0.0465925","-0.295051","-0.954345","0.993155","0.0887621","-0.0759296"
"3","327674461802472","1.42445","0.68866","-1.12076","0","0","0","0.109307","-0.952352","0.284741","-0.0388819","-0.290335","-0.956135","0.993247","0.0934413","-0.068765"
"3","327674478556622","1.30951","-1.18886","-3.61134","0","0","0","0.114929","-0.936283","0.331911","-0.0394417","-0.338162","-0.940261","0.99259","0.0949722","-0.0757933"
"3","327674495371808","5.44771","-0.978119","-1.90625","0","0","0","0.113057","-0.941909","0.316268","-0.0605164","-0.324246","-0.944035","0.991744","0.0875907","-0.0936594"
"3","327674512125958","10.1606","0.0947571","-1.17824","0","0","0","0.103804","-0.960515","0.258139","-0.0763124","-0.266467","-0.960818","0.991666","0.0800374","-0.10096"
"3","327674528910626","14.6245","0.937714","-1.58057","0","0","0","0.108142","-0.924764","0.364852","-0.0660017","-0.372873","-0.925532","0.991942","0.0760081","-0.101359"
"3","327674545695294","14.2222","2.56618","-3.43892","0","0","0","0.108513","-0.928499","0.355126","-0.0692258","-0.363426","-0.929047","0.991682","0.0762302","-0.103713"
"3","327674562479962","11.0994","2.62364","-3.24733","0","0","0","0.114131","-0.950831","0.287914","-0.084302","-0.298032","-0.950826","0.989882","0.084247","-0.114172"
"3","327674579264630","7.61259","1.01434","-1.17824","0","0","0","0.1245","-0.946636","0.297287","-0.0891742","-0.309081","-0.946846","0.988204","0.091372","-0.122896"
"3","327674596049298","6.80794","0.956879","-0.354431","0","0","0","0.119","-0.968066","0.22065","-0.0994733","-0.232735","-0.96744","0.987899","0.0931761","-0.123992"
"3","327674612833966","7.45932","0.880249","-0.373596","0","0","0","0.124485","-0.955546","0.267275","-0.0906482","-0.279196","-0.955946","0.988072","0.094773","-0.121374"
"3","327674629649151","8.16818","0.305496","-1.23572","0","0","0","0.1211","-0.964679","0.233943","-0.0926021","-0.245629","-0.964931","0.988311","0.0951897","-0.119077"
"3","327674646403302","8.30229","0.190536","-2.09784","0","0","0","0.117321","-0.969124","0.216873","-0.09754","-0.22857","-0.968629","0.988292","0.0924866","-0.121344"
"3","327674663187970","8.66629","0.209702","-1.6572","0","0","0","0.118687","-0.961301","0.248625","-0.100026","-0.260696","-0.960225","0.987881","0.0890975","-0.127097"
"3","327674679972638","8.68546","0.49707","-0.795074","0","0","0","0.109641","-0.976233","0.186942","-0.110455","-0.198877","-0.97378","0.987815","0.0861173","-0.129634"
"3","327674696787823","8.70461","-0.0202026","0.0478973","0","0","0","0.108209","-0.975096","0.193592","-0.107724","-0.20509","-0.972797","0.988274","0.0844104","-0.127234"
"3","327674713541974","9.72","-2.05098","0.6418","0","0","0","0.0963845","-0.984495","0.146562","-0.106662","-0.156615","-0.981883","0.989613","0.0790058","-0.120103"
"3","327674730296124","9.43263","-2.26172","0.181992","0","0","0","0.0859962","-0.973053","0.213946","-0.094189","-0.22172","-0.970551","0.991833","0.0633123","-0.110718"
"3","327674747111310","8.95367","-1.28465","0.469376","0","0","0","0.0650654","-0.983025","0.171546","-0.0937535","-0.177171","-0.979704","0.993467","0.0476618","-0.10369"
"3","327674763895978","8.91536","-0.479996","0.6418","0","0","0","0.0538584","-0.98472","0.165608","-0.0879342","-0.169881","-0.981533","0.994669","0.0383013","-0.0957401"
"3","327674780680645","9.35599","0.248016","0.6418","0","0","0","0.0486252","-0.984027","0.171252","-0.0800567","-0.174743","-0.981354","0.995604","0.0340087","-0.0872749"
"3","327674797465313","9.64337","0.822769","0.814224","0","0","0","0.0511464","-0.972345","0.227879","-0.0688332","-0.231068","-0.9705","0.996316","0.0339519","-0.0787479"
"3","327674814280499","9.26021","0.841919","1.06328","0","0","0","0.0490581","-0.981985","0.182478","-0.0612129","-0.185311","-0.980772","0.996918","0.0369447","-0.0692012"
"3","327674831065167","10.1223","-0.135147","-0.277802","0","0","0","0.0501684","-0.979687","0.194155","-0.0515463","-0.196681","-0.979112","0.99741","0.0391125","-0.0603664"
"3","327674847819317","11.1569","-0.824844","-0.871704","0","0","0","0.0481012","-0.971939","0.230262","-0.0488839","-0.232544","-0.971357","0.997646","0.0354673","-0.0586978"
"3","327674864603985","12.4788","-0.614105","1.21655","0","0","0","0.0431819","-0.963032","0.265905","-0.0475259","-0.267832","-0.962293","0.997936","0.0289162","-0.0573345"
"3","327674881388653","13.0919","-1.53371","1.88708","0","0","0","0.0334696","-0.968261","0.247692","-0.0390182","-0.248908","-0.967741","0.998678","0.0227253","-0.0461107"
"3","327674898173321","13.0919","-1.70613","0.69928","0","0","0","0.020501","-0.964181","0.264452","-0.0289751","-0.26497","-0.963821","0.99937","0.0120967","-0.0333694"
"3","327674914957989","14.5096","0.343811","2.00203","0","0","0","0.012991","-0.946104","0.323602","-0.0244851","-0.323834","-0.945797","0.999616","0.00436338","-0.0273724"
"3","327674931742657","14.5479","-0.0968323","-1.69551","0","0","0","0.00942476","-0.957224","0.289194","-0.0127667","-0.289299","-0.957154","0.999874","0.00532888","-0.0149472"
"3","327674948527325","16.0997","-2.5874","-7.5771","0","0","0","0.0103198","-0.958426","0.285154","-0.0268986","-0.285332","-0.958051","0.999585","0.0022167","-0.0287249"
"3","327674965342511","12.0381","-2.08929","-3.99451","0","0","0","0.00375219","-0.971963","0.235104","-0.0611149","-0.234889","-0.970099","0.998124","-0.0107284","-0.0602828"
"3","327674982096661","6.15656","-0.65242","-3.15155","0","0","0","0.00107063","-0.965603","0.260017","-0.0801135","-0.259265","-0.962478","0.996785","-0.0198004","-0.0776354"
"3","327674998881329","4.85379","2.89186","-0.852554","0","0","0","-0.00184166","-0.977809","0.209492","-0.0937052","-0.208402","-0.973544","0.995598","-0.0214234","-0.0912419"
"3","327675015604962","6.30983","4.44368","0.105362","0","0","0","0.0118077","-0.983525","0.180389","-0.0921015","-0.180704","-0.979216","0.99568","-0.00505178","-0.0927178"
"3","327675032450665","10.2373","2.7386","-2.42352","0","0","0","0.0321952","-0.987272","0.155746","-0.0874638","-0.158012","-0.983556","0.995647","0.0180436","-0.0914378"
"3","327675049265851","14.5287","-0.65242","-2.23195","0","0","0","0.0450224","-0.986537","0.15722","-0.0925236","-0.160821","-0.982637","0.994692","0.0296941","-0.0985185"
"3","327675066020001","15.0077","-2.9131","-2.88333","0","0","0","0.0345229","-0.992608","0.11635","-0.100193","-0.11927","-0.987793","0.994369","0.022444","-0.10357"
"3","327675082774151","11.8849","-2.6832","-1.71468","0","0","0","0.0335637","-0.967541","0.250474","-0.104945","-0.252641","-0.961852","0.993911","0.00599725","-0.110019"
"3","327675099589337","9.27936","-1.97435","-0.795074","0","0","0","0.01878","-0.971946","0.234453","-0.110252","-0.235077","-0.965703","0.993726","-0.00771304","-0.111574"
"3","327675116374005","8.24481","-1.15054","-1.33151","0","0","0","0.0137732","-0.962069","0.27246","-0.111323","-0.272267","-0.95576","0.993689","-0.0171672","-0.110851"
"3","327675133189190","7.65091","0.305496","-1.42729","0","0","0","0.0152787","-0.948987","0.314945","-0.114285","-0.314575","-0.942328","0.99333","-0.021596","-0.113261"
"3","327675149943341","7.61259","2.48953","-1.08244","0","0","0","0.0218838","-0.946304","0.322537","-0.114868","-0.322858","-0.939451","0.99314","-0.0164904","-0.115765"
"3","327675166728009","7.82333","2.81523","-1.27403","0","0","0","0.0331742","-0.953686","0.298969","-0.112346","-0.300796","-0.947048","0.993115","-0.00217051","-0.117122"
"3","327675183512677","7.95744","2.47038","-1.77214","0","0","0","0.0467144","-0.958412","0.281538","-0.111238","-0.285084","-0.952026","0.992695","0.0131556","-0.119929"
"3","327675200297345","8.1107","1.819","-0.737595","0","0","0","0.0659113","-0.9408","0.332492","-0.107669","-0.337977","-0.934975","0.992","0.0258263","-0.123571"
"3","327675217082013","8.58966","1.24425","-0.220322","0","0","0","0.074049","-0.938232","0.33799","-0.102674","-0.344292","-0.933231","0.991955","0.0344021","-0.121826"
"3","327675233866681","8.93451","1.2251","-0.335281","0","0","0","0.07373","-0.950582","0.301591","-0.099675","-0.307924","-0.946175","0.992285","0.0397004","-0.117453"
"3","327675250651349","8.70461","1.62741","-0.258636","0","0","0","0.0772342","-0.951431","0.298016","-0.0943842","-0.304544","-0.94781","0.992535","0.0450753","-0.113321"
"3","327675267497052","8.09155","1.79984","0.354416","0","0","0","0.086057","-0.938432","0.334573","-0.0844818","-0.341483","-0.936084","0.992702","0.0522912","-0.108667"
"3","327675284220685","8.49387","1.18677","1.63803","0","0","0","0.0892974","-0.944611","0.31581","-0.0766125","-0.322652","-0.943412","0.993054","0.0600492","-0.101181"
"3","327675301066388","9.68169","0.248016","1.86794","0","0","0","0.0908085","-0.927749","0.36199","-0.0577266","-0.367784","-0.928118","0.994194","0.0633845","-0.0869537"
"3","327675317820538","10.7162","-0.0202026","1.12076","0","0","0","0.0817248","-0.940037","0.331136","-0.0475789","-0.335548","-0.940821","0.995519","0.0611333","-0.0721486"
"3","327675334086407","11.0419","0.382126","0.910019","0","0","0","0.0747902","-0.940977","0.330105","-0.0388205","-0.333529","-0.94194","0.996443","0.0576331","-0.0614739"
"3","327675351328839","10.3714","1.93394","-0.833389","0","0","0","0.0737614","-0.927048","0.367616","-0.0243557","-0.370185","-0.928639","0.996978","0.0595441","-0.0498842"
"3","327675368113507","11.2718","2.60449","-0.526855","0","0","0","0.0737614","-0.927048","0.367616","-0.0243557","-0.370185","-0.928639","0.996978","0.0595441","-0.0498842"
"3","327675384379376","12.747","3.16008","0.124527","0","0","0","0.0818747","-0.924492","0.372306","-0.0216226","-0.37512","-0.926724","0.996408","0.067825","-0.0507027"
"3","327675401682843","14.2605","3.29419","0.852539","0","0","0","0.0911077","-0.940803","0.326479","-0.0168328","-0.329251","-0.944092","0.995699","0.0805185","-0.0458336"
"3","327675417918194","12.7853","3.04514","1.25487","0","0","0","0.0999102","-0.926286","0.363334","-0.00130405","-0.365283","-0.930896","0.994996","0.0925322","-0.0377034"
"3","327675435221661","16.1189","0.899399","1.48476","0","0","0","0.103962","-0.929106","0.354899","0.00917011","-0.355922","-0.934471","0.994539","0.100404","-0.0284822"
"3","327675452006329","17.8623","-0.690735","-8.36259","0","0","0","0.098667","-0.930471","0.352829","0.0106866","-0.353548","-0.935355","0.995063","0.0960592","-0.02494"
"3","327675468821515","15.5058","-0.422516","-6.23602","0","0","0","0.102017","-0.914928","0.390512","-0.024392","-0.394743","-0.918468","0.994484","0.0841742","-0.0625875"
"3","327675485026349","10.6204","0.286331","-0.201172","0","0","0","0.103632","-0.914302","0.391552","-0.0485245","-0.39785","-0.916166","0.993431","0.0759442","-0.0855961"
"3","327675502421368","4.56642","0.61203","-0.392746","0","0","0","0.102767","-0.896611","0.43073","-0.0426372","-0.436595","-0.898647","0.993791","0.073986","-0.0830964"
"3","327675519206036","3.32114","-0.901474","-2.82585","0","0","0","0.10115","-0.918866","0.381385","-0.0496319","-0.387535","-0.920518","0.993632","0.0741813","-0.0848041"
"3","327675535990704","6.02245","-1.13138","-1.59972","0","0","0","0.106291","-0.87334","0.475373","-0.052741","-0.48236","-0.874384","0.992935","0.0678672","-0.0973312"
"3","327675552195538","9.72","-0.0585175","-0.871704","0","0","0","0.101611","-0.874848","0.47362","-0.0607111","-0.48065","-0.874808","0.99297","0.0601365","-0.101953"
"3","327675569560040","12.7662","1.97226","-2.84502","0","0","0","0.0975743","-0.887903","0.449564","-0.0651166","-0.456447","-0.887365","0.993096","0.0573099","-0.102355"
"3","327675586344708","11.7316","2.85355","-3.20901","0","0","0","0.110652","-0.861952","0.494767","-0.0632762","-0.502924","-0.862011","0.991843","0.0640765","-0.110191"
"3","327675602610577","9.29852","2.54701","-2.9408","0","0","0","0.121987","-0.881888","0.455404","-0.0719309","-0.465479","-0.882131","0.989922","0.0748511","-0.120218"
"3","327675619914044","7.57426","2.10637","-1.58057","0","0","0","0.13128","-0.898313","0.419284","-0.080519","-0.431209","-0.898652","0.98807","0.0842146","-0.12894"
"3","327675636668194","6.73131","1.51247","-0.81424","0","0","0","0.13606","-0.914578","0.380834","-0.0858285","-0.393845","-0.915161","0.986976","0.0918308","-0.132084"
"3","327675653483380","7.40184","0.0947571","-0.0478973","0","0","0","0.140193","-0.909169","0.392119","-0.0815693","-0.405289","-0.910542","0.986759","0.0956667","-0.130979"
"3","327675670268048","8.32144","-1.28465","-0.0670624","0","0","0","0.133418","-0.914032","0.383074","-0.0802163","-0.395221","-0.915077","0.987808","0.091359","-0.12605"
"3","327675687113751","8.47472","-1.89771","-0.354431","0","0","0","0.120128","-0.917323","0.379589","-0.0808525","-0.390128","-0.917204","0.989461","0.0794909","-0.121033"
"3","327675703867901","9.35599","-1.32297","-0.316116","0","0","0","0.109288","-0.899394","0.423257","-0.0777145","-0.432235","-0.898406","0.990968","0.0652916","-0.117134"
"3","327675720622052","8.62798","-0.0202026","0.373581","0","0","0","0.0998174","-0.895203","0.434337","-0.0755824","-0.442077","-0.893787","0.992131","0.0563872","-0.111789"
"3","327675737376202","8.83871","-0.72905","-0.105377","0","0","0","0.0907298","-0.913058","0.39761","-0.0744448","-0.404358","-0.911566","0.993089","0.0531062","-0.10466"
"3","327675753642071","8.85788","-0.863159","-0.105377","0","0","0","0.0865433","-0.894086","0.439454","-0.0679899","-0.445382","-0.892756","0.993925","0.0473835","-0.0993336"
"3","327675770976056","8.64714","-0.307571","-0.0478973","0","0","0","0.0785207","-0.894343","0.440438","-0.0672602","-0.445548","-0.892728","0.994641","0.0404737","-0.0951384"
"3","327675787791241","8.39807","0.573715","0.258636","0","0","0","0.0741368","-0.891493","0.446927","-0.0640503","-0.451491","-0.889974","0.995189","0.037354","-0.0905726"
"3","327675804575909","9.16441","1.07182","0.431061","0","0","0","0.0732205","-0.890062","0.449921","-0.0575996","-0.454153","-0.88906","0.995651","0.0391821","-0.0845205"
"3","327675821330060","10.5055","1.26341","0.239471","0","0","0","0.0749394","-0.879948","0.469123","-0.0478817","-0.473078","-0.879718","0.996038","0.0434632","-0.0775856"
"3","327675838114728","11.291","1.16762","0.181992","0","0","0","0.0751906","-0.891157","0.447421","-0.0420877","-0.451127","-0.891466","0.996281","0.0481989","-0.0714273"
"3","327675854899395","12.019","-0.135147","-0.220322","0","0","0","0.0768362","-0.869089","0.488652","-0.0316665","-0.491981","-0.87003","0.996541","0.0513759","-0.065323"
"3","327675871653546","11.4826","-1.15054","-0.660965","0","0","0","0.0703001","-0.88729","0.455823","-0.0341574","-0.458827","-0.887869","0.996941","0.0468475","-0.062563"
"3","327675888499249","11.3293","-1.51454","0.852539","0","0","0","0.0596232","-0.905605","0.419909","-0.0399959","-0.422487","-0.905486","0.997419","0.0371934","-0.0614105"
"3","327675905253399","11.6741","-1.95518","2.65341","0","0","0","0.0494974","-0.850197","0.524133","-0.0302589","-0.525812","-0.850062","0.998316","0.0262162","-0.0517523"
"3","327675922038067","11.0611","-2.87479","2.63426","0","0","0","0.028378","-0.859826","0.509797","-0.0225321","-0.510423","-0.859628","0.999343","0.0129077","-0.0338584"
"3","327675938822735","10.0074","-2.37666","2.05951","0","0","0","0.0069292","-0.836787","0.547485","-0.016849","-0.547518","-0.836624","0.999834","-0.00342746","-0.0178929"
"3","327675955637921","10.1223","0.075592","2.38521","0","0","0","-0.00941705","-0.84061","0.541559","-0.0124365","-0.541443","-0.840646","0.999878","-0.0146515","-0.00535547"
"3","327675972422589","11.7316","0.535385","2.02119","0","0","0","-0.0157791","-0.806065","0.591617","-0.000658645","-0.591682","-0.806171","0.999875","-0.0131103","0.00880528"
"3","327675989176739","11.6167","-0.269257","-6.58087","0","0","0","-0.0153061","-0.85216","0.523057","0.00576535","-0.523185","-0.8522","0.999866","-0.0100282","0.0129209"
"3","327676005961407","11.9998","0.995193","-7.05983","0","0","0","0.00394402","-0.863453","0.504414","-0.0264094","-0.504332","-0.863106","0.999643","-0.00991716","-0.0247924"
"3","327676022746075","9.91159","2.71944","-2.67259","0","0","0","0.0256482","-0.874876","0.483668","-0.0523467","-0.484338","-0.873313","0.9983","-0.00291948","-0.0582193"
"3","327676039561261","9.47095","3.16008","0.488525","0","0","0","0.0380711","-0.915264","0.401052","-0.0572413","-0.402682","-0.913549","0.997634","0.011823","-0.0677214"
"3","327676056345929","9.62421","2.25964","-1.15909","0","0","0","0.0489656","-0.930445","0.363145","-0.0496941","-0.3654","-0.929523","0.997563","0.0274685","-0.0641296"
"3","327676073100079","11.1952","0.573715","-2.15532","0","0","0","0.0575114","-0.943664","0.325868","-0.0520936","-0.3288","-0.942962","0.996985","0.0372554","-0.0680686"
"3","327676089884747","13.0535","-1.70613","-0.239487","0","0","0","0.0582171","-0.946085","0.318643","-0.0583869","-0.321865","-0.944984","0.996595","0.0364096","-0.073977"
"3","327676106669415","12.4788","-2.62573","1.35065","0","0","0","0.045789","-0.943163","0.329162","-0.0572301","-0.331443","-0.941738","0.99731","0.0242833","-0.0691538"
"3","327676123454083","10.1415","-1.95518","0.50769","0","0","0","0.028998","-0.93948","0.341375","-0.0515964","-0.342471","-0.938111","0.998247","0.00958963","-0.0584047"
"3","327676140238751","8.05322","-0.901474","-2.05952","0","0","0","0.0238018","-0.888458","0.458341","-0.0481341","-0.458958","-0.887153","0.998557","-0.00094597","-0.0536892"
"3","327676157023419","7.53595","0.458755","-1.6572","0","0","0","0.0240184","-0.884374","0.466161","-0.0565174","-0.466751","-0.882581","0.998113","-0.00514805","-0.0611931"
"3","327676173808087","7.34438","1.89563","-0.584335","0","0","0","0.0313659","-0.87224","0.488071","-0.05917","-0.489076","-0.870232","0.997755","-0.00158353","-0.0669507"
"3","327676190592755","7.13364","2.98766","-0.335281","0","0","0","0.041796","-0.867971","0.494854","-0.0537919","-0.496523","-0.866355","0.997677","0.00959107","-0.0674424"
"3","327676207377423","6.96121","3.50493","-0.584335","0","0","0","0.0545712","-0.88303","0.466133","-0.0468137","-0.468578","-0.882181","0.997412","0.0263203","-0.0669088"
"3","327676224192608","7.38269","3.23671","-1.13992","0","0","0","0.0700295","-0.898528","0.433294","-0.0414019","-0.436604","-0.898701","0.996685","0.0449964","-0.0677759"
"3","327676240946759","8.58966","2.56618","-1.08244","0","0","0","0.0859679","-0.900288","0.42672","-0.0384853","-0.430987","-0.901537","0.995554","0.0610808","-0.0716989"
"3","327676257731427","9.27936","1.85732","-0.392746","0","0","0","0.0971543","-0.897904","0.429337","-0.0353119","-0.434215","-0.900117","0.994643","0.0722895","-0.0738926"
"3","327676274516095","9.16441","1.28256","0.00956726","0","0","0","0.102389","-0.895169","0.433808","-0.0303083","-0.438704","-0.89812","0.994283","0.0788093","-0.0720494"
"3","327676290751446","8.16818","0.937714","1.44644","0","0","0","0.0992802","-0.909096","0.404584","-0.011186","-0.407587","-0.913098","0.994997","0.0861268","-0.0506345"
"3","327676308054913","8.83871","0.803604","1.29318","0","0","0","0.0992802","-0.909096","0.404584","-0.011186","-0.407587","-0.913098","0.994997","0.0861268","-0.0506345"
"3","327676324809063","8.83871","0.803604","1.29318","0","0","0","0.0992802","-0.909096","0.404584","-0.011186","-0.407587","-0.913098","0.994997","0.0861268","-0.0506345"
"3","327676341105450","9.73917","0.726974","1.44644","0","0","0","0.0958217","-0.885718","0.454226","0.00420189","-0.455962","-0.889989","0.99539","0.0871889","-0.0399694"
"3","327676358378399","11.2718","0.68866","1.50392","0","0","0","0.0896264","-0.871412","0.482295","0.0163593","-0.48289","-0.875528","0.995841","0.0863604","-0.0290241"
"3","327676375163067","11.2335","0.937714","0.622635","0","0","0","0.0839683","-0.883292","0.461242","0.0223438","-0.461092","-0.887071","0.996218","0.0847918","-0.018981"
"3","327676391947735","10.9653","1.66573","-0.411911","0","0","0","0.0825627","-0.884463","0.459248","0.0257532","-0.458774","-0.888179","0.996253","0.0851576","-0.0150999"
"3","327676408732403","12.3064","2.4129","-0.296951","0","0","0","0.0871387","-0.883453","0.460344","0.0268813","-0.459849","-0.88759","0.995833","0.0897182","-0.0163222"
"3","327676425517071","14.797","2.22133","0.603485","0","0","0","0.0942141","-0.900024","0.425536","0.0266086","-0.425008","-0.904798","0.995196","0.0965677","-0.0160934"
"3","327676442301739","12.9769","1.85732","2.30856","0","0","0","0.095853","-0.907583","0.408785","0.0320488","-0.407649","-0.912576","0.994879","0.100574","-0.00998736"
"3","327676459116925","11.5017","1.87648","3.15154","0","0","0","0.0941189","-0.91834","0.384438","0.0434381","-0.381996","-0.923142","0.994613","0.103584","0.00393789"
"3","327676475962628","16.3679","1.51247","2.5193","0","0","0","0.0798103","-0.84051","0.535886","0.0726957","-0.531262","-0.844083","0.994156","0.106323","0.0187013"
"3","327676492655743","17.2301","1.28256","-9.66536","0","0","0","0.0788602","-0.854341","0.513694","0.0730002","-0.508967","-0.857685","0.994209","0.105137","0.0222299"
"3","327676509501446","15.0652","1.39752","-8.03691","0","0","0","0.102797","-0.88301","0.457959","0.0241504","-0.458047","-0.8886","0.994409","0.102406","-0.0257609"
"3","327676526286114","9.60506","1.11014","-2.67259","0","0","0","0.118283","-0.866262","0.485386","-0.00303801","-0.489131","-0.872205","0.992975","0.101692","-0.0604876"
"3","327676543070782","4.93044","0.420441","-0.56517","0","0","0","0.123554","-0.862397","0.490923","-0.0102895","-0.4958","-0.868375","0.992285","0.10224","-0.0701317"
"3","327676559885968","4.43231","-0.882324","-1.31235","0","0","0","0.123632","-0.833891","0.537904","-0.00546597","-0.542626","-0.839956","0.992313","0.100905","-0.071644"
"3","327676576640118","8.51303","-1.32297","-1.2932","0","0","0","0.11837","-0.876204","0.467178","-0.0240533","-0.472878","-0.8808","0.992678","0.0930229","-0.0770501"
"3","327676593424786","10.812","0.880249","-1.25487","0","0","0","0.112201","-0.863689","0.491378","-0.0285182","-0.497096","-0.867227","0.993276","0.0832907","-0.0804057"
"3","327676610178937","11.3293","3.58156","-1.33151","0","0","0","0.114627","-0.866547","0.485754","-0.0305419","-0.49182","-0.870161","0.992939","0.084908","-0.0828417"
"3","327676626994122","10.2948","4.06052","-2.21278","0","0","0","0.128455","-0.860629","0.492766","-0.0248795","-0.499522","-0.865944","0.991403","0.0989749","-0.085578"
"3","327676643809308","9.22188","2.06805","-2.84502","0","0","0","0.143015","-0.884016","0.445042","-0.031838","-0.453541","-0.890666","0.989208","0.113209","-0.0930086"
"3","327676660563458","8.26398","0.937714","-2.15532","0","0","0","0.150503","-0.897286","0.415003","-0.0435608","-0.425396","-0.903958","0.987649","0.117971","-0.10311"
"3","327676677348126","7.93828","0.726974","-1.40814","0","0","0","0.152332","-0.902035","0.403892","-0.0513788","-0.415336","-0.908216","0.986993","0.117599","-0.109614"
"3","327676694163312","7.8808","0.650345","-1.02498","0","0","0","0.148473","-0.927035","0.344327","-0.0638901","-0.356451","-0.932127","0.98685","0.116397","-0.112152"
"3","327676710886944","7.84248","0.209702","-1.10161","0","0","0","0.144431","-0.940302","0.308174","-0.0708321","-0.320465","-0.944608","0.986977","0.114602","-0.112889"
"3","327676727732647","8.5705","-1.05475","-0.0478973","0","0","0","0.14264","-0.926535","0.34812","-0.066702","-0.359915","-0.930598","0.987525","0.10952","-0.11314"
"3","327676744456280","9.37515","-1.68697","0.488525","0","0","0","0.12547","-0.949041","0.289098","-0.0742236","-0.299564","-0.951185","0.989317","0.097887","-0.108027"
"3","327676761240948","9.24104","-2.18509","0.69928","0","0","0","0.113384","-0.928099","0.354649","-0.0630102","-0.36295","-0.929676","0.991551","0.0830643","-0.0996325"
"3","327676778056134","9.29852","-2.51077","0.546005","0","0","0","0.090343","-0.950971","0.295791","-0.0668623","-0.302127","-0.95092","0.993664","0.0661317","-0.0908792"
"3","327676794871319","8.93451","-2.01266","0.775909","0","0","0","0.0764103","-0.924357","0.3738","-0.0584619","-0.378404","-0.923792","0.995361","0.0487342","-0.0829536"
"3","327676811655987","8.41724","-0.767365","0.948334","0","0","0","0.0606731","-0.927624","0.368555","-0.0558662","-0.371812","-0.926626","0.996593","0.0356315","-0.0743818"
"3","327676828410138","8.12987","0.343811","1.04413","0","0","0","0.0553184","-0.901911","0.428364","-0.0459884","-0.430867","-0.901243","0.997409","0.0301555","-0.0653124"
"3","327676845194806","8.83871","0.726974","0.986649","0","0","0","0.051416","-0.908603","0.414484","-0.0382192","-0.416519","-0.908323","0.997946","0.0308611","-0.0561418"
"3","327676861979474","10.2948","0.669495","1.02496","0","0","0","0.0513707","-0.888792","0.455423","-0.0268375","-0.457089","-0.889016","0.998319","0.033447","-0.047334"
"3","327676878764142","10.8887","0.439606","1.0058","0","0","0","0.0481417","-0.907562","0.41715","-0.0203686","-0.418439","-0.908016","0.998633","0.0352167","-0.0386301"
"3","327676895579327","11.6741","0.0564423","-0.220322","0","0","0","0.0458576","-0.884494","0.464293","-0.0114358","-0.465217","-0.885123","0.998883","0.0352801","-0.0314486"
"3","327676912333478","11.8849","-0.556625","-0.62265","0","0","0","0.0424868","-0.915826","0.399322","-0.015472","-0.400238","-0.916281","0.998977","0.0327516","-0.0311745"
"3","327676929118145","13.0919","-0.882324","0.50769","0","0","0","0.0380077","-0.911785","0.408905","-0.0179748","-0.409759","-0.912017","0.999116","0.0273136","-0.0319631"
"3","327676945902813","13.8965","-1.59117","1.52307","0","0","0","0.0297443","-0.892765","0.44954","-0.0146846","-0.450081","-0.892867","0.99945","0.0199564","-0.0264972"
"3","327676962717999","12.0765","-1.68697","2.28941","0","0","0","0.0154561","-0.900393","0.434804","-0.00976166","-0.434971","-0.900392","0.999833","0.00967211","-0.0155123"
"3","327676979502667","10.2564","0.0564423","2.67258","0","0","0","0.00163032","-0.89682","0.442392","-0.000955665","-0.442394","-0.89682","0.999998","0.00103932","-0.0015783"
"3","327676996256817","10.4863","1.87648","3.13237","0","0","0","-0.00284313","-0.90173","0.43229","0.0133239","-0.432287","-0.901638","0.999907","0.00319633","0.0132436"
"3","327677013041485","11.8466","-0.805695","-7.6729","0","0","0","0.000363736","-0.88693","0.461903","0.0200183","-0.461804","-0.886756","0.9998","0.00956905","0.0175868"
"3","327677029826153","12.2297","-1.13138","-7.73038","0","0","0","0.0121779","-0.942918","0.332801","-0.0211995","-0.332995","-0.94269","0.999701","0.0044248","-0.0240446"
"3","327677046610821","9.16441","0.458755","-3.70714","0","0","0","0.0220891","-0.928162","0.37152","-0.0556533","-0.372176","-0.926492","0.998206","-0.000210868","-0.0598763"
"3","327677063426007","7.95744","1.37836","-1.79131","0","0","0","0.0299762","-0.931425","0.362697","-0.0694253","-0.363924","-0.928838","0.997137","0.0026627","-0.0755736"
"3","327677080149640","9.47095","2.22133","-0.833389","0","0","0","0.0313124","-0.966127","0.256161","-0.0764406","-0.25785","-0.963156","0.996582","0.0105777","-0.0819253"
"3","327677096964825","11.8274","1.35919","-1.1974","0","0","0","0.0411098","-0.968504","0.245582","-0.0743829","-0.248075","-0.965881","0.996382","0.0214401","-0.0822384"
"3","327677113749493","13.2643","-0.863159","-2.15532","0","0","0","0.0480605","-0.961656","0.270016","-0.0747765","-0.273034","-0.959094","0.996042","0.0259037","-0.0850314"
"3","327677130534161","13.3409","-2.30003","-0.890869","0","0","0","0.0415468","-0.963767","0.26349","-0.0807035","-0.266093","-0.960563","0.995872","0.0186437","-0.0888347"
"3","327677147349347","9.68169","-1.66782","-0.143692","0","0","0","0.0294085","-0.961908","0.271789","-0.0821079","-0.273312","-0.958415","0.996189","0.0058695","-0.0870179"
"3","327677164103497","8.14902","-1.16969","-0.660965","0","0","0","0.0222552","-0.95391","0.299268","-0.0811932","-0.300077","-0.950453","0.99645","-0.00314599","-0.0841293"
"3","327677180888165","7.7467","-0.824844","-1.94456","0","0","0","0.0267665","-0.911771","0.409825","-0.0814419","-0.410598","-0.908172","0.996319","-0.0090684","-0.0852467"
"3","327677197672833","7.80417","0.133072","-1.75299","0","0","0","0.0278248","-0.905044","0.424407","-0.088687","-0.425132","-0.900776","0.995671","-0.0125755","-0.0920949"
"3","327677214488019","7.99576","1.41667","-0.603485","0","0","0","0.0260988","-0.929432","0.36807","-0.0938382","-0.368847","-0.924741","0.995245","-0.0104044","-0.0968426"
"3","327677231272687","7.91913","2.0489","-0.775909","0","0","0","0.0382102","-0.910274","0.412239","-0.0883893","-0.414002","-0.905974","0.995353","-0.00182013","-0.0962776"
"3","327677248026837","7.70837","2.39375","-1.27403","0","0","0","0.0495086","-0.90881","0.414261","-0.0839042","-0.417088","-0.904985","0.995243","0.0100462","-0.0969024"
"3","327677264811505","7.68922","2.10637","-1.1974","0","0","0","0.0602022","-0.919049","0.389517","-0.0828727","-0.39348","-0.91559","0.99474","0.0228402","-0.0998524"
"3","327677281596173","7.99576","1.64658","-0.546021","0","0","0","0.0718083","-0.913178","0.401185","-0.0794407","-0.406182","-0.910333","0.99425","0.033499","-0.101711"
"3","327677298350323","8.49387","1.30173","0.411896","0","0","0","0.0799808","-0.89865","0.431313","-0.0712681","-0.436747","-0.896757","0.994245","0.0409845","-0.0989765"
"3","327677314616192","8.30229","1.35919","0.411896","0","0","0","0.0817177","-0.900189","0.427764","-0.0629285","-0.433003","-0.899193","0.994667","0.0465614","-0.0920316"
"3","327677331370343","8.01491","1.5891","0.737595","0","0","0","0.0843083","-0.897518","0.432843","-0.0538221","-0.437857","-0.897432","0.994985","0.0523645","-0.0852213"
"3","327677348155011","8.12987","1.51247","1.08244","0","0","0","0.0850112","-0.91316","0.398637","-0.0463833","-0.403278","-0.913901","0.9953","0.0592018","-0.0766385"
"3","327677364939679","8.64714","1.03351","1.08244","0","0","0","0.0880135","-0.888905","0.449557","-0.0301181","-0.453477","-0.890759","0.995664","0.064859","-0.0666842"
"3","327677381724347","9.37515","0.861084","1.02496","0","0","0","0.0847245","-0.912225","0.400834","-0.0247537","-0.404083","-0.914387","0.996097","0.0675488","-0.0568167"
"3","327677398509015","10.0648","1.03351","0.814224","0","0","0","0.0826779","-0.90034","0.427262","-0.0132366","-0.429684","-0.902882","0.996488","0.0689929","-0.0474428"
"3","327677415842999","10.7545","1.41667","-0.335281","0","0","0","0.0817053","-0.89527","0.437968","-0.00508943","-0.439806","-0.898078","0.996643","0.0711488","-0.0404909"
"3","327677432597149","13.9731","2.64281","-0.81424","0","0","0","0.0853594","-0.915096","0.394098","-0.00739422","-0.396113","-0.918172","0.996323","0.0754606","-0.0405784"
"3","327677449412335","16.1763","2.77692","0.852539","0","0","0","0.0932353","-0.878317","0.4689","0.00390016","-0.470625","-0.882325","0.995636","0.0840925","-0.0404533"
"3","327677466166485","14.0306","2.29796","1.90625","0","0","0","0.0962927","-0.893234","0.439159","0.0118583","-0.440149","-0.897847","0.995282","0.0916637","-0.0317909"
"3","327677482981671","11.2335","1.47415","3.80292","0","0","0","0.0960849","-0.915316","0.391106","0.0213359","-0.39094","-0.920169","0.995144","0.0967589","-0.0180343"
"3","327677499735821","14.1264","0.899399","3.51553","0","0","0","0.0854336","-0.877516","0.471875","0.048938","-0.469339","-0.881661","0.995141","0.0984161","0.00284656"
"3","327677516520489","16.1572","0.0947571","-1.33151","0","0","0","0.0703467","-0.848894","0.52386","0.0673479","-0.519921","-0.851555","0.995247","0.095185","0.0205965"
"3","327677533366192","15.5058","-0.441681","-10.1635","0","0","0","0.0732142","-0.842536","0.533642","0.047531","-0.531522","-0.84571","0.996183","0.0872825","0.00113163"
"3","327677550150860","12.3447","1.05267","-3.89871","0","0","0","0.0908991","-0.836326","0.540645","0.00665624","-0.54237","-0.840114","0.995838","0.0799642","-0.0437341"
"3","327677566935528","6.36729","1.05267","-1.35066","0","0","0","0.0982741","-0.879395","0.46584","-0.0139961","-0.469281","-0.882938","0.995061","0.08025","-0.0584263"
"3","327677583689679","4.2982","-0.57579","-1.94456","0","0","0","0.103123","-0.865547","0.490095","-0.016486","-0.494142","-0.869225","0.994532","0.081557","-0.0652266"
"3","327677599955548","7.13364","-1.11221","-0.775909","0","0","0","0.101807","-0.872948","0.477071","-0.0273876","-0.481841","-0.875831","0.994427","0.0760996","-0.0729626"
"3","327677616740216","9.87326","-0.0010376","-2.40437","0","0","0","0.0954815","-0.883107","0.459352","-0.0361416","-0.464232","-0.884976","0.994775","0.0678972","-0.0762425"
"3","327677634074200","11.8657","1.97226","-3.4964","0","0","0","0.0981912","-0.877311","0.469769","-0.0445814","-0.475455","-0.87861","0.994169","0.0653288","-0.0857972"
"3","327677650858868","12.1531","3.65819","-2.04036","0","0","0","0.107817","-0.897053","0.42857","-0.0562676","-0.435898","-0.898235","0.992577","0.0727301","-0.097472"
"3","327677667643536","10.2564","3.04514","-2.63428","0","0","0","0.124298","-0.882059","0.454446","-0.0508623","-0.46306","-0.884866","0.990941","0.086873","-0.102421"
"3","327677684550274","9.08778","1.37836","-2.97913","0","0","0","0.132405","-0.914959","0.381207","-0.0645279","-0.391734","-0.917813","0.989093","0.0969247","-0.110908"
"3","327677701243390","8.55135","0.74614","-2.21278","0","0","0","0.135938","-0.925918","0.352417","-0.0767409","-0.364491","-0.928039","0.987741","0.0991105","-0.120604"
"3","327677717967022","7.86165","0.382126","-0.411911","0","0","0","0.138198","-0.921507","0.362941","-0.0802066","-0.375666","-0.923278","0.987152","0.0984847","-0.125827"
"3","327677734843243","7.63174","-0.250092","-0.220322","0","0","0","0.13164","-0.936154","0.326016","-0.0840135","-0.338231","-0.937305","0.987731","0.0959969","-0.123174"
"3","327677751566876","7.57426","-0.882324","-0.258636","0","0","0","0.128889","-0.919355","0.371718","-0.0763614","-0.382933","-0.920615","0.988715","0.0902722","-0.119559"
"3","327677768351544","8.53218","-1.16969","0.0287323","0","0","0","0.114558","-0.94142","0.317184","-0.083331","-0.327267","-0.94125","0.989915","0.0813967","-0.115941"
"3","327677785166729","8.72377","-0.882324","0.239471","0","0","0","0.103454","-0.941727","0.320074","-0.0811323","-0.328718","-0.940937","0.99132","0.0713755","-0.110412"
"3","327677801890362","8.64714","-0.939789","-0.0478973","0","0","0","0.0960246","-0.931031","0.35208","-0.0748318","-0.359466","-0.930153","0.992562","0.0629708","-0.104188"
"3","327677818736065","9.10693","-1.20801","-0.182007","0","0","0","0.0855815","-0.934518","0.345474","-0.0741975","-0.351761","-0.933145","0.993565","0.0542266","-0.0994431"
"3","327677835490216","9.37515","-0.824844","-0.335281","0","0","0","0.0760374","-0.931246","0.35637","-0.0730582","-0.361647","-0.929448","0.994425","0.0446371","-0.0955339"
"3","327677852274884","9.29852","-0.0202026","-0.296951","0","0","0","0.0671118","-0.939136","0.336927","-0.0736881","-0.341431","-0.937014","0.995021","0.0380572","-0.0921172"
"3","327677869059552","9.31767","0.784454","0.105362","0","0","0","0.0725369","-0.892537","0.445102","-0.0626129","-0.449473","-0.891097","0.995398","0.0367683","-0.0884877"
"3","327677885813702","9.75832","0.880249","0.737595","0","0","0","0.0667386","-0.9309","0.359126","-0.062949","-0.36314","-0.929606","0.995783","0.039434","-0.0828347"
"3","327677902659405","9.94991","0.343811","1.06328","0","0","0","0.0654744","-0.93317","0.353421","-0.0541815","-0.356983","-0.932538","0.996382","0.0419086","-0.0739338"
"3","327677919383038","10.563","-0.805695","0.469376","0","0","0","0.0609755","-0.931993","0.357312","-0.0452365","-0.36019","-0.931781","0.997114","0.0406523","-0.0641229"
"3","327677936167706","11.3484","-1.78276","-0.641815","0","0","0","0.0503357","-0.942958","0.329085","-0.0443479","-0.331288","-0.942487","0.997747","0.0328465","-0.0584938"
"3","327677952952374","11.54","-1.57202","-0.526855","0","0","0","0.0383878","-0.947713","0.316807","-0.0488619","-0.318441","-0.946682","0.998068","0.0208613","-0.0585313"
"3","327677969737042","12.4022","-0.63327","1.10159","0","0","0","0.0341748","-0.906498","0.420826","-0.046125","-0.422054","-0.905397","0.998351","0.0115311","-0.0562358"
"3","327677986582745","12.4788","-0.614105","2.09782","0","0","0","0.0243964","-0.922759","0.384605","-0.0394298","-0.385308","-0.921945","0.998924","0.00732725","-0.0457844"
"3","327678003336895","10.2948","-0.518311","2.40436","0","0","0","0.0122664","-0.95864","0.284355","-0.0297574","-0.284601","-0.958184","0.999482","0.00329179","-0.0320177"
"3","327678020121563","10.2373","1.18677","2.92163","0","0","0","0.00801478","-0.915131","0.403077","-0.0150657","-0.403155","-0.915008","0.999854","0.00126095","-0.0170183"
"3","327678036906231","12.862","0.458755","2.11699","0","0","0","0.00650671","-0.904841","0.4257","0.00269036","-0.425691","-0.904864","0.999975","0.00703298","-0.000335503"
"3","327678053721417","14.0306","-1.41875","-5.22064","0","0","0","0.00498766","-0.933141","0.359475","0.00847531","-0.359427","-0.933135","0.999952","0.00770082","0.00611596"
"3","327678070506085","14.2414","-1.74445","-7.74953","0","0","0","0.00801083","-0.935931","0.352093","-0.0229887","-0.352184","-0.935648","0.999704","-0.000598845","-0.0243371"
"3","327678087229718","9.37515","0.439606","-3.97536","0","0","0","0.0117216","-0.946675","0.321978","-0.058875","-0.322095","-0.944875","0.998197","-0.00788105","-0.0595109"
"3","327678104014386","5.42854","1.97226","-3.22818","0","0","0","0.0178795","-0.958609","0.284165","-0.0762838","-0.284689","-0.95558","0.996926","-0.00459188","-0.0782164"
"3","327678120799054","6.17572","3.1026","-1.04413","0","0","0","0.0276208","-0.972641","0.230667","-0.0864989","-0.232215","-0.968811","0.995869","0.00680687","-0.0905463"
"3","327678137614239","9.1261","2.68112","-0.775909","0","0","0","0.0405411","-0.981338","0.187968","-0.0861796","-0.190856","-0.977828","0.995454","0.0234432","-0.0923089"
"3","327678154429425","14.5862","-1.43791","-1.58057","0","0","0","0.0523323","-0.974035","0.220265","-0.0835688","-0.224065","-0.970985","0.995127","0.0324067","-0.0931248"
"3","327678171214093","15.6208","-4.04344","-0.910019","0","0","0","0.04251","-0.970285","0.238201","-0.0861847","-0.241089","-0.966669","0.995372","0.0205638","-0.0938724"
"3","327678187998761","12.5171","-3.66028","-0.143692","0","0","0","0.0226113","-0.963549","0.266574","-0.0877078","-0.267526","-0.95955","0.99589","-0.00168392","-0.0905599"
"3","327678204752911","9.3943","-1.6295","-0.0478973","0","0","0","0.0127098","-0.934698","0.355216","-0.086837","-0.354934","-0.93085","0.996141","-0.019015","-0.0856775"
"3","327678221537579","7.55511","-0.135147","-1.2932","0","0","0","0.0118577","-0.905634","0.423894","-0.0858811","-0.42328","-0.90192","0.996235","-0.0257098","-0.0827959"
"3","327678238352765","6.96121","0.784454","-1.79131","0","0","0","0.00786377","-0.933798","0.357715","-0.0900047","-0.356935","-0.929783","0.99591","-0.0248844","-0.0868531"
"3","327678255106915","6.96121","1.74237","-1.35066","0","0","0","0.0182859","-0.922478","0.385615","-0.0930823","-0.385576","-0.917969","0.99549","-0.0191081","-0.092917"
"3","327678271891583","7.17195","2.27879","-1.02498","0","0","0","0.02939","-0.922243","0.385492","-0.0921719","-0.386516","-0.917665","0.995309","-0.00856135","-0.0963646"
"3","327678288676251","6.98036","2.68112","-1.15909","0","0","0","0.0434049","-0.918141","0.393869","-0.0884414","-0.396224","-0.913884","0.995135","0.00483273","-0.0983998"
"3","327678305460919","7.65091","2.5087","-1.50394","0","0","0","0.0553688","-0.930178","0.362909","-0.0873041","-0.366585","-0.926279","0.994642","0.0196034","-0.101506"
"3","327678322276104","8.51303","2.12553","-1.46562","0","0","0","0.0624362","-0.954346","0.292105","-0.0911369","-0.296905","-0.950548","0.993879","0.0327271","-0.105514"
"3","327678339030255","9.45178","1.79984","-0.660965","0","0","0","0.0818558","-0.918864","0.385991","-0.0827937","-0.392221","-0.916137","0.993199","0.0430336","-0.108182"
"3","327678355784405","9.50926","1.78069","-0.316116","0","0","0","0.0861147","-0.929215","0.359367","-0.0802354","-0.366004","-0.927148","0.993049","0.0510071","-0.106074"
"3","327678372538556","8.58966","1.97226","-0.105377","0","0","0","0.0897778","-0.938233","0.334154","-0.076335","-0.341004","-0.936957","0.993032","0.0586104","-0.102235"
"3","327678389353741","7.1911","2.43207","0.929169","0","0","0","0.098081","-0.929622","0.355222","-0.0666695","-0.362279","-0.929682","0.992943","0.0675017","-0.0975101"
"3","327678406107892","6.17572","2.27879","2.02119","0","0","0","0.102246","-0.946167","0.307107","-0.0585645","-0.313915","-0.947643","0.993034","0.0789076","-0.0875084"
"3","327678422892560","7.1911","1.35919","2.53847","0","0","0","0.106759","-0.94462","0.310315","-0.0398984","-0.315918","-0.947947","0.993484","0.0888204","-0.0714158"
"3","327678439677228","10.8887","0.267181","1.35065","0","0","0","0.103385","-0.95211","0.287747","-0.0255262","-0.291742","-0.956157","0.994314","0.0915069","-0.0544654"
"3","327678456461895","12.4022","-0.0776672","-0.0862122","0","0","0","0.0961247","-0.94799","0.303438","-0.0154092","-0.306231","-0.951833","0.99525","0.0868189","-0.0440441"
"3","327678473277081","13.2451","1.70406","-1.8871","0","0","0","0.0911669","-0.907184","0.410738","-0.00593808","-0.412943","-0.910737","0.995818","0.0805901","-0.0430337"
"3","327678489512433","14.2797","2.70029","-1.15909","0","0","0","0.0930631","-0.924824","0.368835","-0.0165004","-0.371824","-0.928157","0.995523","0.0802912","-0.0498631"
"3","327678506297101","16.0039","3.58156","1.06328","0","0","0","0.100692","-0.946112","0.307786","-0.0204655","-0.311263","-0.950103","0.994707","0.0893692","-0.0507045"
"3","327678523081769","13.9348","3.06429","2.32773","0","0","0","0.107809","-0.953991","0.279784","-0.0102229","-0.282473","-0.959221","0.994119","0.100552","-0.0402056"
"3","327678539866437","10.927","2.06805","4.20525","0","0","0","0.111356","-0.96961","0.217846","0.000923645","-0.219108","-0.9757","0.99378","0.108851","-0.0235035"
"3","327678556651104","12.6129","1.32088","4.51176","0","0","0","0.109173","-0.961604","0.251792","0.0291314","-0.250102","-0.967781","0.993596","0.112991","0.000708486"
"3","327678573435772","14.9694","-0.767365","-7.13647","0","0","0","0.0983134","-0.938234","0.331741","0.0516309","-0.328098","-0.943232","0.993815","0.10986","0.0161854"
"3","327678590220440","15.1035","-0.671585","-7.73038","0","0","0","0.0990927","-0.945906","0.308939","0.0104643","-0.309459","-0.950855","0.995023","0.0974557","-0.0207669"
"3","327678607005108","10.927","0.171387","-3.36229","0","0","0","0.101141","-0.935634","0.33817","-0.0219404","-0.341928","-0.93947","0.99463","0.0875995","-0.0551112"
"3","327678623789776","5.85002","0.63118","-2.69174","0","0","0","0.102483","-0.940251","0.324693","-0.0382177","-0.329893","-0.943245","0.994","0.0842578","-0.0697427"
"3","327678640574444","5.06453","-0.154312","-2.15532","0","0","0","0.105697","-0.943716","0.313415","-0.0500769","-0.319832","-0.94615","0.993137","0.0843102","-0.0810636"
"3","327678657389630","6.52057","-0.537476","-1.17824","0","0","0","0.107608","-0.928761","0.354716","-0.0546133","-0.361771","-0.930666","0.992692","0.0807753","-0.0896524"
"3","327678674143780","9.26021","0.995193","-1.58057","0","0","0","0.1047","-0.926823","0.360605","-0.0587875","-0.367732","-0.928072","0.992765","0.0759701","-0.0929873"
"3","327678690928448","10.7545","3.44745","-2.74922","0","0","0","0.103923","-0.93155","0.348445","-0.060151","-0.355587","-0.932705","0.992765","0.0759701","-0.0929873"
"3","327678707713116","10.5438","4.29042","-2.8067","0","0","0","0.10792","-0.933916","0.340813","-0.0642579","-0.348651","-0.935047","0.992081","0.0790101","-0.0976378"
"3","327678724497784","10.0074","1.35919","-3.18987","0","0","0","0.135889","-0.955228","0.26282","-0.0819033","-0.275204","-0.957891","0.987333","0.108641","-0.115633"
"3","327678741282452","9.56674","-0.614105","-2.5768","0","0","0","0.135808","-0.962994","0.232806","-0.0960266","-0.246671","-0.96433","0.98607","0.108609","-0.125973"
"3","327678758097638","8.28313","-0.65242","-1.48477","0","0","0","0.131792","-0.956851","0.258974","-0.101263","-0.272882","-0.956703","0.986092","0.0998609","-0.132857"
"3","327678774851788","7.2869","-0.0010376","-0.68013","0","0","0","0.118501","-0.972448","0.200755","-0.112383","-0.214015","-0.970344","0.986574","0.0924253","-0.134648"
"3","327678791666974","6.96121","-0.0010376","-0.143692","0","0","0","0.11908","-0.962995","0.241787","-0.106563","-0.254509","-0.961181","0.98715","0.0886919","-0.132926"
"3","327678808970440","7.21027","-0.307571","-0.0287476","0","0","0","0.103474","-0.984006","0.145003","-0.114245","-0.156579","-0.981036","0.988049","0.0849455","-0.128619"
"3","327678825816144","8.93451","-0.863159","0.124527","0","0","0","0.107036","-0.965118","0.238936","-0.100102","-0.249557","-0.963173","0.989203","0.0791764","-0.123321"
"3","327678842539776","9.56674","-1.05475","-0.0670624","0","0","0","0.0916556","-0.977456","0.190207","-0.100605","-0.199123","-0.974797","0.990696","0.0702098","-0.116588"
"3","327678858775128","9.56674","-1.61034","-0.162857","0","0","0","0.0838829","-0.970358","0.226646","-0.0944226","-0.234164","-0.967601","0.991992","0.0597647","-0.111266"
"3","327678875559796","9.27936","-1.74445","0.488525","0","0","0","0.0690113","-0.974482","0.213596","-0.0931396","-0.219465","-0.971164","0.993258","0.047127","-0.105908"
"3","327678892893780","8.76208","-1.09306","0.680115","0","0","0","0.0579449","-0.96836","0.242737","-0.0860856","-0.247087","-0.965162","0.994601","0.03503","-0.0976793"
"3","327678909739483","8.5705","-0.192627","0.967484","0","0","0","0.0509715","-0.960213","0.274578","-0.0777883","-0.277918","-0.95745","0.995666","0.0274437","-0.0888592"
"3","327678926493634","8.83871","0.669495","1.15907","0","0","0","0.0449281","-0.965974","0.254705","-0.0698237","-0.257376","-0.963785","0.996547","0.0255166","-0.0790113"
"3","327678943278302","9.54758","1.18677","1.36981","0","0","0","0.045796","-0.961964","0.269309","-0.0577582","-0.271691","-0.96065","0.99728","0.0284392","-0.0680037"
"3","327678960032452","9.73917","1.05267","1.21655","0","0","0","0.0511622","-0.937456","0.344324","-0.0412646","-0.346465","-0.937155","0.997837","0.0337385","-0.0564096"
"3","327678976817120","10.6013","0.228867","0.795059","0","0","0","0.0487848","-0.959139","0.278697","-0.0337507","-0.280453","-0.959274","0.998239","0.0373918","-0.0460534"
"3","327678993662823","11.6933","-0.920639","-0.162857","0","0","0","0.0460373","-0.950784","0.306414","-0.0264137","-0.307791","-0.951087","0.99859","0.035692","-0.0392836"
"3","327679010416974","12.0573","-0.997269","0.143677","0","0","0","0.0388312","-0.946269","0.321039","-0.0262358","-0.322137","-0.94633","0.998901","0.0283244","-0.0373351"
"3","327679027201642","13.0535","-1.28465","1.06328","0","0","0","0.0301234","-0.948019","0.316784","-0.0250396","-0.317544","-0.947913","0.999233","0.0206223","-0.0333035"
"3","327679043986310","12.1531","-1.80193","2.2511","0","0","0","0.01832","-0.953182","0.301841","-0.0200271","-0.302181","-0.95304","0.999632","0.0114147","-0.0246254"
"3","327679060770978","10.6013","-0.882324","2.845","0","0","0","0.00499629","-0.9373","0.348487","-0.0095292","-0.34852","-0.937253","0.999942","0.00136198","-0.010673"
"3","327679077555645","10.3139","1.87648","2.5193","0","0","0","-0.00353778","-0.915194","0.402999","0.00346067","-0.40301","-0.915189","0.999988","-0.00184309","0.00459295"
"3","327679094340313","12.5554","1.78069","1.86794","0","0","0","0.00182065","-0.951757","0.306848","0.0206457","-0.306747","-0.951567","0.999785","0.00806756","0.0190912"
"3","327679111124981","12.5171","0.0947571","-5.87202","0","0","0","0.00929352","-0.960314","0.278767","0.0253392","-0.278463","-0.960113","0.999636","0.0159866","0.0217457"
"3","327679127909649","12.6895","-0.939789","-8.70744","0","0","0","0.0177072","-0.968256","0.249333","-0.00969819","-0.249526","-0.968319","0.999796","0.0147281","-0.0138087"
"3","327679144694317","8.12987","0.477921","-3.13239","0","0","0","0.023984","-0.960888","0.275897","-0.0447841","-0.276732","-0.959903","0.998709","0.0106665","-0.0496696"
"3","327679161509503","7.59343","1.62741","0.201157","0","0","0","0.0262814","-0.978034","0.20678","-0.0582557","-0.207999","-0.976393","0.997956","0.0136148","-0.0624425"
"3","327679178263653","9.37515","1.4933","0.277786","0","0","0","0.0315345","-0.985129","0.168897","-0.0549933","-0.170435","-0.983833","0.997989","0.0217365","-0.0595501"
"3","327679195048321","11.9424","-0.614105","-1.96373","0","0","0","0.0381039","-0.979029","0.200127","-0.0500811","-0.201892","-0.978126","0.998018","0.0272479","-0.0567238"
"3","327679211832989","14.0306","-2.66405","-2.38521","0","0","0","0.0333624","-0.979296","0.199667","-0.0589175","-0.201358","-0.977744","0.997705","0.020856","-0.0644155"
"3","327679228617657","13.6858","-2.89394","-0.0862122","0","0","0","0.0211199","-0.972992","0.229872","-0.0671455","-0.230785","-0.970685","0.99752","0.00506586","-0.0702061"
"3","327679245432843","11.2527","-1.38043","0.948334","0","0","0","0.0104915","-0.955366","0.295238","-0.0654825","-0.295277","-0.953165","0.997799","-0.0093328","-0.0656577"
"3","327679262125958","8.72377","-0.173462","-0.258636","0","0","0","0.00167261","-0.960293","0.27899","-0.0603647","-0.278578","-0.958515","0.998175","-0.0152379","-0.0584337"
"3","327679278941144","7.26775","0.68866","-2.13615","0","0","0","0.00413993","-0.948049","0.318099","-0.0599149","-0.317765","-0.946274","0.998195","-0.0151414","-0.0581178"
"3","327679295756329","6.8271","1.41667","-1.94456","0","0","0","0.0115717","-0.946599","0.322207","-0.0666587","-0.322242","-0.944308","0.997709","-0.0105506","-0.0668279"
"3","327679312571515","6.96121","2.14468","-0.986664","0","0","0","0.0254482","-0.930763","0.364736","-0.0700589","-0.365618","-0.928125","0.997218","-0.00193391","-0.0745126"
"3","327679329356183","6.86542","2.77692","-0.392746","0","0","0","0.0341837","-0.948488","0.314964","-0.0693711","-0.31664","-0.946005","0.997005","0.0104885","-0.0766216"
"3","327679346110333","6.80794","2.94934","-0.775909","0","0","0","0.0547104","-0.912576","0.405231","-0.0592581","-0.408091","-0.911016","0.996742","0.0258288","-0.0764044"
"3","327679362864483","8.12987","2.12553","-0.852554","0","0","0","0.0809662","-0.922866","0.376513","-0.0529843","-0.381204","-0.922971","0.995308","0.0547802","-0.0797621"
"3","327679379099835","8.12987","2.12553","-0.852554","0","0","0","0.0809662","-0.922866","0.376513","-0.0529843","-0.381204","-0.922971","0.995308","0.0547802","-0.0797621"
"3","327679395884503","8.99199","1.78069","-0.526855","0","0","0","0.0875444","-0.939089","0.332336","-0.0541986","-0.337613","-0.939723","0.994685","0.0642553","-0.0804535"
"3","327679413218487","9.01114","1.78069","0.0287323","0","0","0","0.0942275","-0.934012","0.34459","-0.0490521","-0.350065","-0.93544","0.994342","0.0712413","-0.078801"
"3","327679429972638","8.55135","1.43584","0.948334","0","0","0","0.0987824","-0.931049","0.35127","-0.0413773","-0.356534","-0.933366","0.994248","0.0776655","-0.0737435"
"3","327679446787823","8.74294","0.784454","1.77214","0","0","0","0.0962496","-0.957282","0.272666","-0.0388957","-0.277346","-0.959982","0.994597","0.0817924","-0.0639286"
"3","327679463541974","9.75832","0.0947571","2.11699","0","0","0","0.0943964","-0.925778","0.366094","-0.0165329","-0.369143","-0.929225","0.995397","0.0816629","-0.0501516"
"3","327679480387677","11.3484","-0.0393524","1.58055","0","0","0","0.0850062","-0.91579","0.392559","-0.0019556","-0.394138","-0.919049","0.996378","0.0773572","-0.0352951"
"3","327679497202862","12.1148","0.401291","0.258636","0","0","0","0.0756061","-0.887139","0.455267","0.0108121","-0.455818","-0.890008","0.997079","0.0722124","-0.0248707"
"3","327679513957013","11.7699","1.79984","-1.31235","0","0","0","0.0735117","-0.902165","0.425082","0.009407","-0.425589","-0.904868","0.99725","0.0705171","-0.0227991"
"3","327679530741681","12.9769","3.56241","-1.36983","0","0","0","0.0814882","-0.871849","0.482948","0.0119807","-0.483668","-0.87517","0.996602","0.077102","-0.0289679"
"3","327679547526349","14.5479","3.98389","0.6418","0","0","0","0.0961085","-0.888887","0.447931","0.0121954","-0.448929","-0.893484","0.995296","0.0913342","-0.0323055"
"3","327679564348865","12.2297","3.1026","2.69174","0","0","0","0.107497","-0.937022","0.332317","0.0114454","-0.333065","-0.942834","0.99414","0.105155","-0.0250788"
"3","327679581133533","11.0611","2.43207","4.09029","0","0","0","0.107789","-0.905694","0.41","0.0393728","-0.408191","-0.912047","0.993394","0.114451","-0.00833864"
"3","327679597887684","14.5862","1.18677","3.09406","0","0","0","0.102409","-0.895303","0.433526","0.0630676","-0.429097","-0.901054","0.992741","0.119617","0.0125214"
"3","327679614672351","15.0077","-0.0968323","-7.15562","0","0","0","0.0996273","-0.921383","0.37567","0.0633859","-0.370905","-0.926505","0.993004","0.116117","0.0214505"
"3","327679631426502","14.318","0.228867","-8.15186","0","0","0","0.10524","-0.916037","0.387041","0.0256816","-0.386569","-0.921903","0.994115","0.106961","-0.0171574"
"3","327679648180652","9.22188","0.228867","-1.92542","0","0","0","0.113714","-0.900436","0.419863","-0.00555972","-0.423174","-0.906031","0.993498","0.100694","-0.0531271"
"3","327679664477039","5.9075","-0.63327","0.795059","0","0","0","0.112369","-0.907604","0.404509","-0.0141946","-0.408512","-0.912643","0.993565","0.0968108","-0.0587872"
"3","327679681902576","6.07993","-2.08929","-1.5614","0","0","0","0.104327","-0.903061","0.41665","-0.0122098","-0.420067","-0.907411","0.994468","0.0895801","-0.0548505"
"3","327679698565174","8.4364","-1.97435","-3.18987","0","0","0","0.0957244","-0.882668","0.460146","-0.0204922","-0.463918","-0.885641","0.995197","0.075348","-0.0624961"
"3","327679715349842","11.5209","2.60449","-2.73006","0","0","0","0.0946612","-0.870392","0.483173","-0.0340015","-0.487897","-0.872239","0.994929","0.0661386","-0.0757795"
"3","327679732165027","11.5592","4.96095","-1.25487","0","0","0","0.106984","-0.891318","0.440575","-0.0412675","-0.446717","-0.893723","0.993404","0.077433","-0.0845742"
"3","327679748949695","9.94991","3.94557","-1.82962","0","0","0","0.126127","-0.892146","0.433783","-0.0348004","-0.440985","-0.896839","0.991404","0.0980196","-0.0866671"
"3","327679765734363","8.87703","1.72321","-2.84502","0","0","0","0.14082","-0.897114","0.418756","-0.0362923","-0.427364","-0.903351","0.98937","0.112012","-0.0927396"
"3","327679782519031","8.03407","0.63118","-2.55763","0","0","0","0.145987","-0.914329","0.377743","-0.0508353","-0.388263","-0.920145","0.987979","0.115127","-0.103162"
"3","327679799303699","7.63174","0.401291","-1.21655","0","0","0","0.145464","-0.927499","0.344362","-0.0643504","-0.356196","-0.932193","0.987269","0.113441","-0.111499"
"3","327679816088367","7.65091","-0.0202026","-0.469391","0","0","0","0.136686","-0.956252","0.258647","-0.0796001","-0.270855","-0.959323","0.987411","0.110538","-0.11314"
"3","327679832903553","7.67006","-0.422516","-0.450226","0","0","0","0.133533","-0.948783","0.286322","-0.0751616","-0.297773","-0.951673","0.98819","0.105559","-0.111074"
"3","327679849657703","9.0303","-1.18886","0.00956726","0","0","0","0.12983","-0.932114","0.338093","-0.0676999","-0.348516","-0.934855","0.989222","0.0984833","-0.108352"
"3","327679866442371","9.1261","-1.34212","0.296951","0","0","0","0.11397","-0.949825","0.291279","-0.0724813","-0.300358","-0.951069","0.990837","0.087281","-0.103076"
"3","327679883227039","9.18356","-1.97435","0.546005","0","0","0","0.102622","-0.937582","0.332277","-0.0651423","-0.339658","-0.93829","0.992585","0.0746437","-0.0959326"
"3","327679900042225","8.85788","-1.87856","0.69928","0","0","0","0.0846294","-0.944725","0.316752","-0.0642001","-0.322402","-0.944423","0.994342","0.0595904","-0.0879362"
"3","327679916826893","8.47472","-0.7099","0.431061","0","0","0","0.0745297","-0.916615","0.392761","-0.0549705","-0.397034","-0.916156","0.995703","0.0466906","-0.0799777"
"3","327679933581043","8.14902","0.592865","0.56517","0","0","0","0.0623881","-0.946914","0.315374","-0.0565531","-0.318836","-0.946121","0.996448","0.0411913","-0.0734426"
"3","327679950365711","8.72377","1.09099","0.948334","0","0","0","0.0651887","-0.921085","0.383866","-0.0444794","-0.386984","-0.921013","0.996881","0.0429655","-0.0661963"
"3","327679967150379","9.73917","0.899399","0.56517","0","0","0","0.0662671","-0.914872","0.39827","-0.0342847","-0.400999","-0.915437","0.997213","0.0470087","-0.0579391"
"3","327679983935047","10.563","0.286331","0.69928","0","0","0","0.0637234","-0.936662","0.344389","-0.0308762","-0.346775","-0.93744","0.99749","0.0491034","-0.0510182"
"3","327680000719715","10.6779","-0.671585","0.316101","0","0","0","0.0587069","-0.937182","0.343865","-0.0251289","-0.345737","-0.937995","0.997959","0.0464258","-0.0438475"
"3","327680017504383","11.4826","-0.748215","-0.718445","0","0","0","0.0529479","-0.900135","0.43238","-0.0195283","-0.433838","-0.900779","0.998406","0.0392507","-0.0405489"
"3","327680034319568","11.4251","-0.365051","-0.373596","0","0","0","0.0459326","-0.929167","0.366796","-0.0271744","-0.36821","-0.929346","0.998575","0.0327198","-0.0421623"
"3","327680051073719","13.0344","-0.326736","0.814224","0","0","0","0.0432603","-0.902794","0.427892","-0.0246261","-0.429126","-0.902909","0.99876","0.0285228","-0.0407964"
"3","327680067278553","12.747","-0.7099","2.00203","0","0","0","0.0359865","-0.902684","0.428796","-0.0189796","-0.429614","-0.902813","0.999172","0.0243508","-0.0325929"
"3","327680084673572","12.3447","0.726974","0.450211","0","0","0","0.026366","-0.917403","0.397085","-0.0120419","-0.397486","-0.917529","0.99958","0.0194099","-0.0215274"
"3","327680101488758","14.682","1.43584","0.52684","0","0","0","0.0269093","-0.892394","0.450453","-0.00277898","-0.450681","-0.892681","0.999634","0.0227696","-0.0146075"
"3","327680118242908","15.9656","-0.920639","-8.03691","0","0","0","0.0318192","-0.925935","0.376339","-0.00653984","-0.376715","-0.926306","0.999472","0.0270131","-0.0180422"
"3","327680134936023","11.8849","-1.61034","-2.59595","0","0","0","0.0371021","-0.938114","0.344332","-0.0452284","-0.345793","-0.93722","0.998287","0.0191992","-0.0552591"
"3","327680151751209","6.11824","-1.36128","-1.69551","0","0","0","0.0327526","-0.937864","0.345454","-0.0605298","-0.346866","-0.935959","0.997629","0.00974487","-0.0681295"
"3","327680168566394","3.1104","0.477921","-0.986664","0","0","0","0.0226137","-0.96554","0.259272","-0.0707754","-0.260234","-0.962948","0.997236","0.00342579","-0.0742213"
"3","327680185351062","3.32114","3.52408","0.56517","0","0","0","0.0290058","-0.961661","0.272703","-0.0718905","-0.274118","-0.959005","0.996991","0.00821199","-0.0770853"
"3","327680202166248","6.38646","3.60072","-1.98289","0","0","0","0.0479633","-0.957739","0.28361","-0.0633634","-0.286282","-0.956048","0.996837","0.0278847","-0.0744167"
"3","327680218920398","12.0381","0.707825","-2.99828","0","0","0","0.0601551","-0.980421","0.187499","-0.0737047","-0.191689","-0.978684","0.995464","0.0450533","-0.0837927"
"3","327680235705066","16.5595","-1.68697","-1.40814","0","0","0","0.0611832","-0.979901","0.18987","-0.0824928","-0.194539","-0.97742","0.994712","0.0441389","-0.0927373"
"3","327680252489734","16.4446","-1.97435","-2.13615","0","0","0","0.0540954","-0.965065","0.256367","-0.0816797","-0.260159","-0.962105","0.995189","0.0311054","-0.0928996"
"3","327680269304920","12.2106","-1.91687","-2.05952","0","0","0","0.0439244","-0.961391","0.271658","-0.0873176","-0.274575","-0.957593","0.995212","0.0183411","-0.0960068"
"3","327680286059070","8.55135","-1.45708","-1.35066","0","0","0","0.0392046","-0.946391","0.320636","-0.0926071","-0.322943","-0.941877","0.994931","0.00723274","-0.100303"
"3","327680302843738","7.11447","0.248016","-0.890869","0","0","0","0.0344322","-0.943795","0.328732","-0.0972918","-0.33053","-0.938767","0.99466","0.000340904","-0.103204"
"3","327680319628406","6.15656","2.20216","0.00956726","0","0","0","0.0436793","-0.918466","0.393082","-0.0940247","-0.39549","-0.913645","0.994611","0.002948","-0.103633"
"3","327680336443592","6.15656","3.58156","-0.0478973","0","0","0","0.0481324","-0.943171","0.328804","-0.0894294","-0.331933","-0.939054","0.994829","0.0157942","-0.100324"
"3","327680353167225","6.55888","3.96472","-0.833389","0","0","0","0.0655265","-0.943941","0.323545","-0.0808322","-0.328198","-0.941144","0.994571","0.035517","-0.0978065"
"3","327680369951893","8.1107","2.35542","-1.15909","0","0","0","0.0804042","-0.962277","0.25992","-0.0808214","-0.2662","-0.960524","0.99348","0.056223","-0.0991762"
"3","327680386217762","9.66252","0.362961","-0.737595","0","0","0","0.0947214","-0.962656","0.253618","-0.0800219","-0.261302","-0.961935","0.992282","0.0708208","-0.101784"
"3","327680403002430","10.1798","-0.307571","-0.584335","0","0","0","0.0948667","-0.970011","0.223782","-0.0822098","-0.231662","-0.969316","0.99209","0.0735587","-0.101721"
"3","327680420305896","10.0457","0.286331","-0.0862122","0","0","0","0.0946522","-0.949442","0.299332","-0.0740064","-0.306561","-0.94897","0.992756","0.0676695","-0.0992815"
"3","327680437060047","8.95367","1.819","0.450211","0","0","0","0.089824","-0.958201","0.271629","-0.071977","-0.278264","-0.957804","0.993353","0.0664827","-0.0939632"
"3","327680453844715","7.84248","2.54701","0.871704","0","0","0","0.0978572","-0.94459","0.313327","-0.058619","-0.319762","-0.945683","0.993473","0.074175","-0.086662"
"3","327680470690418","7.67006","2.08722","1.3315","0","0","0","0.103257","-0.956873","0.271537","-0.0509683","-0.277728","-0.959307","0.993348","0.0852152","-0.0774474"
"3","327680487505603","8.34061","1.35919","1.13991","0","0","0","0.108852","-0.947236","0.301488","-0.034894","-0.306744","-0.951152","0.993445","0.0930145","-0.0664425"
"3","327680504290271","9.4901","0.995193","1.61887","0","0","0","0.109227","-0.938304","0.328109","-0.0207932","-0.332168","-0.942991","0.993799","0.0961777","-0.0557921"
"3","327680521044422","10.1606","0.861084","1.02496","0","0","0","0.105473","-0.940118","0.324121","-0.00959574","-0.326886","-0.945015","0.994376","0.0965634","-0.0434988"
"3","327680537829090","11.1186","1.30173","0.0287323","0","0","0","0.102502","-0.935202","0.338956","-0.000738252","-0.340822","-0.940127","0.994733","0.0961144","-0.0356252"
"3","327680554644275","13.4942","2.29796","-0.354431","0","0","0","0.103477","-0.930747","0.350716","0.00335945","-0.35228","-0.935889","0.994626","0.0980212","-0.0333261"
"3","327680571398426","14.318","3.56241","0.967484","0","0","0","0.109228","-0.953556","0.280713","-9.95584e-06","-0.282404","-0.959296","0.994017","0.104779","-0.030856"
"3","327680588213611","11.5592","3.71567","1.61887","0","0","0","0.118498","-0.965186","0.233182","0.00501049","-0.234253","-0.972163","0.992942","0.116368","-0.0229224"
"3","327680604967762","14.1264","3.04514","1.04413","0","0","0","0.128332","-0.959006","0.252663","0.0193802","-0.252296","-0.967456","0.991542","0.129052","-0.0137919"
"3","327680621782947","16.981","1.78069","-5.92949","0","0","0","0.133453","-0.973767","0.184306","0.0174043","-0.183638","-0.98284","0.990902","0.134371","-0.00755934"
"3","327680638537098","17.709","0.784454","-10.9873","0","0","0","0.137793","-0.965972","0.218886","-0.0159686","-0.223132","-0.974657","0.990332","0.130806","-0.0461713"
"3","327680655321766","13.5325","0.286331","-2.61511","0","0","0","0.141921","-0.956443","0.255098","-0.053666","-0.264762","-0.962819","0.988422","0.122954","-0.0889038"
"3","327680672136951","7.89996","0.0564423","0.316101","0","0","0","0.139942","-0.943903","0.299104","-0.0544931","-0.308961","-0.949512","0.988659","0.116577","-0.0946727"
"3","327680688891101","4.77716","-1.05475","-2.30858","0","0","0","0.129965","-0.965201","0.226926","-0.0629532","-0.236438","-0.969605","0.989518","0.111729","-0.0914913"
"3","327680705675769","6.23318","-1.28465","-1.48477","0","0","0","0.128103","-0.949635","0.285978","-0.0672322","-0.296006","-0.952817","0.989479","0.102832","-0.101765"
"3","327680722460437","9.4901","0.362961","-0.62265","0","0","0","0.124257","-0.934319","0.334079","-0.0678153","-0.343897","-0.936555","0.98993","0.0937178","-0.106093"
"3","327680739275623","11.8657","1.78069","-1.63805","0","0","0","0.122041","-0.933117","0.338227","-0.0667781","-0.347722","-0.935216","0.990276","0.0915488","-0.104748"
"3","327680756060291","12.019","2.45122","-3.78377","0","0","0","0.123189","-0.949943","0.287111","-0.0754319","-0.297441","-0.951756","0.989512","0.0955886","-0.108298"
"3","327680772844959","10.1223","1.79984","-4.16693","0","0","0","0.133884","-0.946053","0.295057","-0.0852433","-0.307628","-0.947681","0.987324","0.101727","-0.121831"
"3","327680789599109","8.14902","1.43584","-2.46185","0","0","0","0.138978","-0.95304","0.269071","-0.101115","-0.283944","-0.953494","0.98512","0.105307","-0.135829"
"3","327680806353260","6.61636","1.4933","-1.04413","0","0","0","0.129901","-0.979742","0.152419","-0.122529","-0.168405","-0.978073","0.983927","0.108377","-0.141922"
"3","327680823168445","6.40561","0.956879","-0.775909","0","0","0","0.131932","-0.981684","0.137444","-0.12437","-0.153954","-0.980219","0.983426","0.112228","-0.142404"
"3","327680839953113","7.2869","-0.269257","-0.737595","0","0","0","0.132112","-0.981606","0.137825","-0.123243","-0.154231","-0.980318","0.983543","0.112526","-0.141352"
"3","327680856737781","7.61259","-1.01643","-0.795074","0","0","0","0.127723","-0.97886","0.159751","-0.12025","-0.175165","-0.977168","0.984493","0.105597","-0.140081"
"3","327680873491932","8.87703","-0.882324","-0.62265","0","0","0","0.11357","-0.984775","0.131604","-0.123584","-0.145434","-0.981619","0.985814","0.0952184","-0.13822"
"3","327680890307117","9.33684","-0.78653","-0.182007","0","0","0","0.108392","-0.979115","0.172006","-0.11714","-0.1844","-0.975846","0.987183","0.0856248","-0.134681"
"3","327680907122303","9.56674","-1.3038","-0.143692","0","0","0","0.0962865","-0.982808","0.157534","-0.114724","-0.168172","-0.979059","0.98872","0.0761972","-0.128945"
"3","327680923906971","9.0303","-1.68697","-0.0287476","0","0","0","0.0888382","-0.974496","0.206071","-0.10663","-0.215004","-0.970775","0.990322","0.0642685","-0.123011"
"3","327680940691639","8.18733","-1.24632","0.450211","0","0","0","0.0737711","-0.978132","0.194462","-0.104244","-0.201488","-0.973928","0.991812","0.0515762","-0.116829"
"3","327680957445789","7.57426","-0.307571","1.17822","0","0","0","0.0666028","-0.971419","0.227837","-0.0954469","-0.2335","-0.967661","0.993204","0.0427026","-0.108271"
"3","327680974230457","7.91913","0.477921","1.31233","0","0","0","0.0583214","-0.978272","0.198952","-0.0865054","-0.203493","-0.975247","0.994543","0.0396674","-0.0964938"
"3","327680991015125","9.87326","0.68866","0.737595","0","0","0","0.0601206","-0.968783","0.240509","-0.0719502","-0.244524","-0.96697","0.995595","0.0408302","-0.084405"
"3","327681007860828","11.3293","0.420441","0.124527","0","0","0","0.0593643","-0.968805","0.24061","-0.0628507","-0.244185","-0.96769","0.996256","0.0423238","-0.0753859"
"3","327681024584461","12.5363","-0.269257","-1.00581","0","0","0","0.0558493","-0.974876","0.215633","-0.0600004","-0.218857","-0.97391","0.996635","0.0414541","-0.070716"
"3","327681041369129","12.7662","-0.690735","-1.40814","0","0","0","0.0532451","-0.968114","0.244787","-0.0606473","-0.247818","-0.966907","0.996738","0.0366374","-0.0719085"
"3","327681058153797","13.226","-0.460846","0.105362","0","0","0","0.0436585","-0.981338","0.18727","-0.0667401","-0.189895","-0.979533","0.996815","0.0302665","-0.0737851"
"3","327681074938465","12.9961","-0.7099","1.81046","0","0","0","0.0427841","-0.961061","0.273005","-0.0572486","-0.275165","-0.959691","0.997443","0.0254304","-0.0667921"
"3","327681091723133","11.4634","-1.38043","2.07867","0","0","0","0.0281548","-0.98349","0.178757","-0.0482361","-0.179956","-0.982491","0.998439","0.0190393","-0.0525064"
"3","327681108507801","10.3714","-0.499161","2.65341","0","0","0","0.0209097","-0.960002","0.279211","-0.0327276","-0.279779","-0.959506","0.999246","0.0109251","-0.0372686"
"3","327681125292469","11.2335","1.09099","3.05574","0","0","0","0.0138649","-0.978076","0.207787","-0.0180282","-0.208018","-0.977959","0.999741","0.00981325","-0.0205171"
"3","327681142077137","14.318","-2.14677","-6.46593","0","0","0","0.0124101","-0.978437","0.206173","-0.00842381","-0.206283","-0.978456","0.999887","0.010406","-0.0108022"
"3","327681158861805","15.9081","-2.85562","-9.55042","0","0","0","0.0062665","-0.982843","0.184338","-0.0457259","-0.18443","-0.981781","0.998934","-0.0022767","-0.0460971"
"3","327681175676990","10.5055","-0.326736","-4.60757","0","0","0","0.00497784","-0.975434","0.220235","-0.088432","-0.219805","-0.971528","0.99607","-0.0146397","-0.0873537"
"3","327681192431141","5.83087","1.28256","-2.23195","0","0","0","0.00116525","-0.988676","0.150061","-0.106144","-0.149336","-0.983073","0.99435","-0.0147826","-0.105116"
"3","327681209246326","4.66222","2.43207","-1.31235","0","0","0","0.00331346","-0.995973","0.0895893","-0.1138","-0.0893834","-0.989475","0.993498","-0.00691668","-0.113638"
"3","327681226000476","5.9075","2.79607","-1.75299","0","0","0","0.00689204","-0.999976","-0.000326508","-0.117541","-0.000485862","-0.993068","0.993044","0.00688264","-0.117541"
"3","327681242815662","10.4863","0.995193","-2.9408","0","0","0","0.0215363","-0.999757","0.00465607","-0.124636","-0.00730561","-0.992176","0.991969","0.0207875","-0.124763"
"3","327681259600330","15.0843","-0.997269","-1.27403","0","0","0","0.0234652","-0.999722","-0.00232841","-0.131552","-0.000778942","-0.991309","0.991032","0.0235676","-0.131534"
"3","327681276354480","14.4138","-1.59117","-2.09784","0","0","0","0.0201844","-0.99929","0.0318141","-0.126648","-0.0341198","-0.991361","0.991742","0.0159809","-0.127247"
