"id","time","accX","accY","accZ","gyroX","gyroY","gyroZ","rot1","rot2","rot3","rot4","rot5","rot6","rot7","rot8","rot9"
"7","81705901748142","9.89243","0.55455","1.48476","0","0","0","0.000387593","-0.937004","0.349319","0.15745","-0.344905","-0.925338","0.987527","0.0553588","0.147397"
"7","81705911727390","9.89243","0.55455","1.48476","0","0","0","0.000387593","-0.937004","0.349319","0.15745","-0.344905","-0.925338","0.987527","0.0553588","0.147397"
"7","81705928542575","9.85411","0.55455","1.69551","0","0","0","-0.00216889","-0.936382","0.350976","0.163488","-0.346586","-0.923661","0.986543","0.0553768","0.153839"
"7","81705945266208","9.83495","0.573715","1.71466","0","0","0","-0.00738007","-0.928387","0.371542","0.168014","-0.367421","-0.914753","0.985757","0.0556735","0.158694"
"7","81705962111911","9.83495","0.573715","1.65718","0","0","0","-0.0187052","-0.90285","0.429548","0.168777","-0.426309","-0.888693","0.985477","0.0558744","0.160354"
"7","81705978866062","9.85411","0.55455","1.67635","0","0","0","-0.00786611","-0.928281","0.371796","0.169628","-0.367657","-0.91436","0.985477","0.0558744","0.160354"
"7","81705995650730","9.85411","0.55455","1.67635","0","0","0","-0.00799213","-0.928194","0.372011","0.169807","-0.36788","-0.914237","0.985445","0.0558634","0.160554"
"7","81706012374362","9.83495","0.535385","1.67635","0","0","0","-0.0196094","-0.901476","0.432384","0.169351","-0.429213","-0.887184","0.985361","0.0558276","0.161083"
"7","81706029220066","9.83495","0.535385","1.65718","0","0","0","-0.00863447","-0.927307","0.374202","0.170264","-0.370115","-0.91325","0.985361","0.0558276","0.161083"
"7","81706046065769","9.85411","0.516235","1.63803","0","0","0","-0.0115515","-0.92138","0.388491","0.17036","-0.38465","-0.907206","0.985314","0.0557037","0.16141"
"7","81706062819919","9.85411","0.535385","1.59972","0","0","0","-0.0189712","-0.904429","0.426201","0.169794","-0.423","-0.890079","0.985297","0.0554808","0.161592"
"7","81706079574070","9.87326","0.55455","1.65718","0","0","0","-0.0175987","-0.908278","0.417998","0.169956","-0.414696","-0.893947","0.985294","0.0553091","0.161666"
"7","81706096328220","9.87326","0.55455","1.65718","0","0","0","-0.00038641","-0.945432","0.325818","0.171011","-0.321081","-0.931484","0.985269","0.0553587","0.161804"
"7","81706113204441","9.8158","0.535385","1.69551","0","0","0","-0.00942163","-0.927137","0.374603","0.170731","-0.37061","-0.912962","0.985273","0.0553548","0.161783"
"7","81706129958591","9.85411","0.516235","1.69551","0","0","0","-0.0142057","-0.916725","0.399267","0.170522","-0.395679","-0.902419","0.985251","0.0552642","0.161942"
"7","81706146743259","9.91159","0.535385","1.69551","0","0","0","-0.0210447","-0.900772","0.433782","0.169948","-0.430787","-0.886307","0.985228","0.0550685","0.162151"
"7","81706163527927","9.89243","0.49707","1.59972","0","0","0","-0.00827795","-0.930984","0.364966","0.171238","-0.360907","-0.916746","0.985195","0.0549072","0.162407"
"7","81706180282077","9.89243","0.439606","1.5614","0","0","0","-0.017458","-0.910698","0.412703","0.170387","-0.409438","-0.896286","0.985223","0.0546719","0.162319"
"7","81706197127780","9.87326","0.439606","1.5614","0","0","0","-0.0178083","-0.91089","0.412265","0.169938","-0.409088","-0.896531","0.985294","0.0540939","0.16208"
"7","81706213912448","9.83495","0.49707","1.50392","0","0","0","-0.0204725","-0.905338","0.424199","0.169197","-0.421305","-0.890996","0.98537","0.0535321","0.161805"
"7","81706230727634","9.87326","0.535385","1.52307","0","0","0","-0.0123726","-0.924719","0.380448","0.16958","-0.376906","-0.910596","0.985439","0.0532499","0.161477"
"7","81706247390232","9.91159","0.535385","1.52307","0","0","0","-0.0120526","-0.924942","0.379917","0.169079","-0.376359","-0.910915","0.985529","0.0532573","0.160925"
"7","81706264205417","9.87326","0.573715","1.58055","0","0","0","-0.00883353","-0.930609","0.365908","0.168278","-0.362087","-0.916829","0.9857","0.0534755","0.1598"
"7","81706281234226","9.89243","0.55455","1.54224","0","0","0","-0.0227444","-0.89646","0.44254","0.166565","-0.439866","-0.882482","0.985768","0.0536403","0.159324"
"7","81706297835788","9.89243","0.49707","1.52307","0","0","0","-0.0170112","-0.910788","0.412524","0.166785","-0.409388","-0.896986","0.985846","0.0535442","0.15887"
"7","81706314589939","9.85411","0.49707","1.54224","0","0","0","-0.0105966","-0.926069","0.377205","0.166883","-0.373574","-0.912465","0.98592","0.0532803","0.158504"
"7","81706331435642","9.85411","0.535385","1.52307","0","0","0","-0.0258877","-0.887726","0.459645","0.16491","-0.457292","-0.873893","0.985969","0.0531771","0.158233"
"7","81706348159275","9.87326","0.573715","1.48476","0","0","0","-0.0224488","-0.896159","0.443165","0.165071","-0.440515","-0.882439","0.986026","0.0533442","0.157819"
"7","81706364974460","9.8158","0.573715","1.50392","0","0","0","-0.0234881","-0.89218","0.451069","0.164519","-0.448492","-0.878515","0.986094","0.053575","0.157315"
"7","81706381728611","9.70084","0.535385","1.54224","0","0","0","-0.0229333","-0.892887","0.449697","0.164329","-0.447064","-0.879278","0.986139","0.0537334","0.15698"
"7","81706398513278","9.62421","0.477921","1.46561","0","0","0","-0.0247621","-0.887524","0.460096","0.163535","-0.457634","-0.873972","0.986227","0.0536006","0.156473"
"7","81706415267429","9.60506","0.458755","1.46561","0","0","0","-0.0128342","-0.91875","0.394631","0.164279","-0.391238","-0.905509","0.98633","0.0532079","0.155952"
"7","81706432113132","9.60506","0.439606","1.50392","0","0","0","-0.0149313","-0.914274","0.404822","0.163744","-0.401637","-0.901041","0.98639","0.0528337","0.155704"
"7","81706449019870","9.66252","0.382126","1.50392","0","0","0","-0.0349467","-0.859532","0.509886","0.160189","-0.508419","-0.846079","0.986467","0.0521106","0.155455"
"7","81706465651950","9.68169","0.324646","1.5614","0","0","0","-0.0236873","-0.894924","0.445589","0.162012","-0.443259","-0.881631","0.986504","0.0513072","0.155488"
"7","81706482436618","9.8158","0.267181","1.54224","0","0","0","-0.0293228","-0.882457","0.469479","0.16086","-0.467725","-0.869113","0.986542","0.0500357","0.155667"
"7","81706499190769","9.93074","0.267181","1.54224","0","0","0","-0.0270806","-0.891846","0.451527","0.160852","-0.449695","-0.878579","0.986607","0.0488366","0.155633"
"7","81706516158542","9.85411","0.228867","1.44644","0","0","0","-0.0392078","-0.858093","0.511996","0.157291","-0.511302","-0.844885","0.986774","0.0474065","0.155018"
"7","81706532790622","9.73917","0.171387","1.35065","0","0","0","-0.0370654","-0.867609","0.495864","0.156401","-0.495127","-0.854627","0.986998","0.0458765","0.154047"
"7","81706549575290","9.52841","0.152222","1.5614","0","0","0","-0.0489102","-0.832542","0.551798","0.152917","-0.552188","-0.819576","0.987028","0.0442935","0.154317"
"7","81706566390476","9.47095","0.133072","1.5614","0","0","0","-0.0417166","-0.862324","0.504636","0.154763","-0.504556","-0.849395","0.98707","0.0426652","0.154505"
"7","81706583175144","9.75832","0.113907","1.46561","0","0","0","-0.054175","-0.823331","0.564971","0.15026","-0.566081","-0.81054","0.987161","0.0409815","0.154381"
"7","81706599929294","10.2373","0.0947571","1.36981","0","0","0","-0.0587851","-0.808773","0.585176","0.146952","-0.586815","-0.796275","0.987395","0.0391837","0.153347"
"7","81706616836032","10.448","0.075592","1.0058","0","0","0","-0.0531478","-0.830822","0.553995","0.145926","-0.555285","-0.818757","0.987867","0.0373273","0.150751"
"7","81706634353122","10.3714","0.0181122","0.546005","0","0","0","-0.0503074","-0.837597","0.543967","0.14149","-0.545141","-0.826318","0.988661","0.0353959","0.145936"
"7","81706650252780","9.93074","0.0564423","0.392746","0","0","0","-0.0366427","-0.88175","0.470291","0.139345","-0.470518","-0.871319","0.989566","0.0336052","0.140108"
"7","81706667129001","9.68169","0.228867","0.335266","0","0","0","-0.0479822","-0.82985","0.555919","0.129582","-0.557028","-0.820322","0.990407","0.0326761","0.134261"
"7","81706684005222","9.62421","0.573715","0.181992","0","0","0","-0.0521655","-0.790894","0.609726","0.121787","-0.611039","-0.782176","0.991184","0.033454","0.128196"
"7","81706700667820","9.91159","0.880249","0.124527","0","0","0","-0.0434858","-0.804558","0.592281","0.119361","-0.592779","-0.796471","0.991898","0.0360602","0.12181"
"7","81706717330417","10.1415","0.439606","0.0670471","0","0","0","-0.0135616","-0.860054","0.510023","0.105228","-0.508465","-0.854629","0.994356","0.0420787","0.0973975"
"7","81706734206638","10.1415","0.439606","0.0670471","0","0","0","-0.0135616","-0.860054","0.510023","0.105228","-0.508465","-0.854629","0.994356","0.0420787","0.0973975"
"7","81706751021823","10.0265","0.707825","0.431061","0","0","0","-0.0130671","-0.862433","0.506002","0.105291","-0.504419","-0.857015","0.994356","0.0420787","0.0973975"
"7","81706767806491","10.0265","0.707825","0.431061","0","0","0","-0.00927651","-0.86724","0.497805","0.102708","-0.496019","-0.862216","0.994668","0.0431301","0.0936737"
"7","81706784560642","10.0265","0.707825","0.431061","0","0","0","-0.00927651","-0.86724","0.497805","0.102708","-0.496019","-0.862216","0.994668","0.0431301","0.0936737"
"7","81706801314792","10.2948","0.707825","0.833374","0","0","0","-0.00958034","-0.855168","0.518262","0.102186","-0.51641","-0.850223","0.994719","0.0448139","0.092334"
"7","81706818160495","10.5246","0.401291","1.02496","0","0","0","-0.00958034","-0.855168","0.518262","0.102186","-0.51641","-0.850223","0.994719","0.0448139","0.092334"
"7","81706834914646","10.5055","0.113907","1.15907","0","0","0","-0.000167796","-0.897759","0.440487","0.102553","-0.43818","-0.893018","0.994727","0.0450232","0.092141"
"7","81706851699314","10.199","0.113907","1.19739","0","0","0","-0.0172437","-0.821469","0.569993","0.10102","-0.568592","-0.816393","0.994735","0.0435033","0.0927897"
"7","81706868483982","10.084","0.305496","0.986649","0","0","0","-0.00723628","-0.883788","0.467831","0.102389","-0.466039","-0.87882","0.994718","0.0415416","0.093863"
"7","81706885238132","10.1606","0.650345","0.6418","0","0","0","-0.0238787","-0.802304","0.596438","0.0999183","-0.595536","-0.79709","0.994709","0.0405616","0.0943854"
"7","81706902053318","10.199","1.11014","0.162842","0","0","0","-0.0222041","-0.804783","0.593154","0.0993404","-0.59214","-0.799688","0.994806","0.0411678","0.0930954"
"7","81706912642917","10.2181","1.51247","-0.0670624","0","0","0","-0.0116753","-0.839452","0.543309","0.0991116","-0.541642","-0.834746","0.995008","0.0441023","0.0895232"
"7","81706921706638","10.1798","1.64658","-0.105377","0","0","0","-0.010763","-0.844399","0.535607","0.0992148","-0.533897","-0.839709","0.995008","0.0441023","0.0895232"
"7","81706935500583","10.1032","1.68489","-0.124527","0","0","0","-0.0150366","-0.772757","0.634524","0.0967241","-0.632744","-0.768296","0.995198","0.0498212","0.0842585"
"7","81706952346286","9.70084","1.5891","0.0478973","0","0","0","0.000216773","-0.815404","0.578892","0.0969043","-0.576151","-0.811579","0.995294","0.056273","0.0788912"
"7","81706969222507","9.43263","1.45499","0.277786","0","0","0","0.0100601","-0.829972","0.557714","0.0965423","-0.55433","-0.826679","0.995278","0.0621595","0.0745508"
"7","81706986037693","9.31767","1.32088","0.392746","0","0","0","0.0171199","-0.836653","0.547466","0.0966169","-0.5436","-0.833765","0.995174","0.0671685","0.0715284"
"7","81707002791843","9.29852","1.26341","0.58432","0","0","0","0.0230796","-0.844743","0.534675","0.0968903","-0.53041","-0.842186","0.995027","0.0712421","0.0696058"
"7","81707019545993","9.58589","1.18677","0.58432","0","0","0","0.0230332","-0.825286","0.564245","0.0987728","-0.559754","-0.822751","0.994843","0.0746826","0.0686229"
"7","81707036330661","9.79663","1.09099","0.66095","0","0","0","0.0280662","-0.838166","0.544693","0.0992163","-0.539881","-0.835874","0.99467","0.0775022","0.0680074"
"7","81707053176364","9.87326","1.09099","0.58432","0","0","0","0.0255745","-0.814377","0.579773","0.101286","-0.574867","-0.811954","0.994529","0.0794881","0.067783"
"7","81707069930515","9.75832","1.16762","0.6418","0","0","0","0.0320202","-0.840942","0.540177","0.100556","-0.535001","-0.838846","0.994416","0.0811782","0.0674312"
"7","81707086715183","9.75832","1.24425","0.756744","0","0","0","0.0262382","-0.800317","0.599002","0.103655","-0.593801","-0.797908","0.994267","0.083025","0.0673764"
"7","81707103438816","9.85411","1.2251","0.66095","0","0","0","0.0429446","-0.878778","0.475296","0.10017","-0.46955","-0.877205","0.994043","0.0852818","0.0678629"
"7","81707120223484","9.89243","1.16762","0.622635","0","0","0","0.0217694","-0.755621","0.654647","0.108408","-0.649157","-0.752889","0.993868","0.0873588","0.0677834"
"7","81707137038669","9.85411","1.11014","0.71843","0","0","0","0.0368738","-0.824336","0.564898","0.106457","-0.558826","-0.822424","0.993633","0.0904633","0.0671504"
"7","81707153914890","9.66252","1.05267","0.775909","0","0","0","0.0597338","-0.925104","0.374986","0.0967756","-0.36852","-0.924569","0.993512","0.0915175","0.0675143"
"7","81707170638523","9.50926","1.03351","0.737595","0","0","0","0.0356985","-0.814613","0.578905","0.107978","-0.572739","-0.812595","0.993512","0.0915175","0.0675143"
"7","81707187331638","9.50926","0.995193","0.622635","0","0","0","0.0412273","-0.840652","0.540005","0.107018","-0.53364","-0.838913","0.993402","0.0923764","0.0679644"
"7","81707204177341","9.68169","0.841919","0.469376","0","0","0","0.0425266","-0.844797","0.533395","0.107158","-0.526942","-0.843119","0.993332","0.0930125","0.0681178"
"7","81707220992527","9.98822","0.803604","0.392746","0","0","0","0.0337374","-0.799097","0.600255","0.109791","-0.593999","-0.796939","0.993382","0.0927893","0.0676937"
"7","81707237716159","10.2373","0.880249","0.316101","0","0","0","0.0342329","-0.800298","0.598625","0.108275","-0.59248","-0.798275","0.993531","0.0921434","0.06637"
"7","81707254561862","10.199","1.03351","0.354416","0","0","0","0.0302757","-0.772604","0.634165","0.107585","-0.628252","-0.770536","0.993735","0.0915551","0.0640998"
"7","81707271285495","10.1223","1.1293","0.488525","0","0","0","0.0377547","-0.807079","0.589235","0.104186","-0.583263","-0.805574","0.993841","0.0918044","0.0620657"
"7","81707288100681","10.0457","1.18677","0.546005","0","0","0","0.038388","-0.794294","0.60632","0.104805","-0.60022","-0.792939","0.993752","0.0939847","0.0602047"
"7","81707304885349","10.2181","1.18677","0.680115","0","0","0","0.0530161","-0.86641","0.49651","0.0994665","-0.490155","-0.865941","0.993628","0.095295","0.0601927"
"7","81707321670017","10.4672","1.1293","0.775909","0","0","0","0.0422363","-0.808267","0.5873","0.105587","-0.580921","-0.807082","0.993513","0.0960995","0.0608066"
"7","81707338454685","10.6588","1.03351","0.890854","0","0","0","0.0458246","-0.830209","0.555566","0.104912","-0.549075","-0.829162","0.993425","0.0962816","0.0619377"
"7","81707355239353","10.9845","1.11014","0.6418","0","0","0","0.0392522","-0.795009","0.605326","0.107814","-0.598887","-0.793543","0.993396","0.0964108","0.0622053"
"7","81707372024021","11.0419","1.47415","0.239471","0","0","0","0.0407017","-0.792184","0.608923","0.107464","-0.602422","-0.79091","0.993375","0.0976286","0.0606115"
"7","81707388869724","10.9845","1.70406","0.0670471","0","0","0","0.0491053","-0.814757","0.57772","0.105033","-0.570998","-0.814205","0.993256","0.100661","0.0575373"
"7","81707405593357","10.8312","1.66573","0.0478973","0","0","0","0.0613528","-0.855006","0.514976","0.0998778","-0.508099","-0.855488","0.993106","0.103921","0.0542229"
"7","81707422316989","10.7162","1.32088","0.124527","0","0","0","0.062921","-0.847411","0.527196","0.099211","-0.520315","-0.848192","0.993075","0.105673","0.0513337"
"7","81707439193210","10.6013","0.995193","0.392746","0","0","0","0.064301","-0.851109","0.521037","0.09739","-0.514273","-0.852079","0.993167","0.105533","0.0498212"
"7","81707455977878","10.448","0.707825","0.58432","0","0","0","0.0663163","-0.86938","0.489673","0.0941457","-0.483112","-0.870482","0.993347","0.103828","0.0498101"
"7","81707472762546","10.2564","0.61203","0.622635","0","0","0","0.0443203","-0.757405","0.651439","0.104182","-0.64502","-0.75703","0.99357","0.10142","0.0503204"
"7","81707489516696","10.0265","0.592865","0.814224","0","0","0","0.054747","-0.834427","0.548393","0.0974395","-0.54213","-0.834626","0.993735","0.0991284","0.0516262"
"7","81707506270847","9.83495","0.650345","0.52684","0","0","0","0.0593508","-0.870909","0.487847","0.0930356","-0.481755","-0.871353","0.993892","0.0971026","0.052433"
"7","81707523116550","10.084","0.707825","-0.162857","0","0","0","0.0640772","-0.895065","0.441307","0.0867678","-0.435544","-0.895976","0.994166","0.0957028","0.0497544"
"7","81707539931736","10.4863","0.784454","-0.81424","0","0","0","0.0484304","-0.791084","0.609787","0.0919822","-0.604377","-0.791371","0.994582","0.094416","0.0434955"
"7","81707556655368","11.0419","0.841919","-1.42729","0","0","0","0.05692","-0.815795","0.575534","0.0816399","-0.570735","-0.817066","0.995035","0.0934939","0.0341151"
"7","81707573440036","11.2527","0.822769","-2.2511","0","0","0","0.05692","-0.815795","0.575534","0.0816399","-0.570735","-0.817066","0.995035","0.0934939","0.0341151"
"7","81707590194187","10.6588","0.458755","-2.84502","0","0","0","0.0626006","-0.807955","0.585909","0.0711744","-0.581951","-0.810103","0.995498","0.0924146","0.0210752"
"7","81707606978855","9.56674","-0.0393524","-2.97913","0","0","0","0.0703241","-0.814183","0.576334","0.0566748","-0.57357","-0.817194","0.995913","0.090132","0.00580795"
"7","81707623824558","8.53218","-0.422516","-2.78754","0","0","0","0.0770142","-0.823887","0.561497","0.0396354","-0.560195","-0.827412","0.996242","0.0859777","-0.0104879"
"7","81707640609226","8.2065","-0.7099","-2.86417","0","0","0","0.0812944","-0.837424","0.540473","0.0221558","-0.540616","-0.840978","0.996444","0.0803414","-0.0253952"
"7","81707657302341","8.66629","-0.269257","-2.86417","0","0","0","0.0822507","-0.795964","0.59973","0.012258","-0.600916","-0.799218","0.996536","0.0730877","-0.0396688"
"7","81707674148044","10.2181","1.03351","-2.61511","0","0","0","0.0856988","-0.803212","0.589497","-0.00344597","-0.591909","-0.805997","0.996315","0.0670416","-0.0534937"
"7","81707691024265","10.9845","1.70406","-2.2511","0","0","0","0.0924181","-0.827495","0.553815","-0.0170596","-0.557429","-0.830049","0.995574","0.0672637","-0.0656333"
"7","81707707717380","11.3676","1.85732","-2.07867","0","0","0","0.109315","-0.834828","0.539548","-0.0267997","-0.545079","-0.837956","0.993646","0.0771416","-0.0819585"
"7","81707724502048","11.0419","1.5891","-1.75299","0","0","0","0.11641","-0.821618","0.558026","-0.0261109","-0.564183","-0.825237","0.992858","0.0814951","-0.0871297"
"7","81707741256198","10.4672","1.35919","-1.44646","0","0","0","0.117842","-0.867794","0.482748","-0.0378776","-0.48971","-0.871062","0.99231","0.0843623","-0.0905783"
"7","81707758040866","10.0265","1.01434","-0.890869","0","0","0","0.117363","-0.891936","0.436664","-0.0441643","-0.443955","-0.89496","0.992107","0.0857501","-0.0914956"
"7","81707774856052","9.70084","0.573715","-0.431061","0","0","0","0.117069","-0.880652","0.459073","-0.0399231","-0.466051","-0.883857","0.992321","0.0851445","-0.0897183"
"7","81707791732273","9.50926","0.209702","-0.296951","0","0","0","0.113328","-0.88081","0.459708","-0.0384775","-0.466232","-0.883825","0.992812","0.0824737","-0.0867285"
"7","81707808364353","9.4901","-0.211777","-0.392746","0","0","0","0.109417","-0.86454","0.490508","-0.0344538","-0.496473","-0.867368","0.993399","0.0780047","-0.0841091"
"7","81707825179538","9.52841","-0.365051","-0.431061","0","0","0","0.0985372","-0.917713","0.384828","-0.047693","-0.390621","-0.919315","0.99399","0.0722331","-0.0822592"
"7","81707842086277","9.56674","-0.479996","-0.507706","0","0","0","0.0946619","-0.897179","0.431403","-0.0440085","-0.436697","-0.898532","0.994536","0.0660713","-0.0808221"
"7","81707858779392","9.62421","-0.556625","-0.431061","0","0","0","0.091166","-0.864274","0.494691","-0.039111","-0.499484","-0.86544","0.995067","0.0595508","-0.0793386"
"7","81707875564060","9.56674","-0.499161","-0.277802","0","0","0","0.0821947","-0.893201","0.442082","-0.0451983","-0.446467","-0.893658","0.995591","0.0534726","-0.0770684"
"7","81707892287693","9.50926","-0.384201","-0.220322","0","0","0","0.0750805","-0.90616","0.416219","-0.0473647","-0.420166","-0.90621","0.996052","0.0483246","-0.0744663"
"7","81707909163913","9.31767","-0.307571","-0.0862122","0","0","0","0.0721325","-0.88309","0.463625","-0.0425727","-0.467138","-0.883159","0.996486","0.0439667","-0.0712914"
"7","81707925948581","9.16441","-0.269257","0.00956726","0","0","0","0.0676342","-0.877184","0.475368","-0.0402552","-0.47847","-0.877181","0.996898","0.0401914","-0.0676721"
"7","81707942763767","9.0303","-0.192627","0.0287323","0","0","0","0.0618993","-0.889923","0.451892","-0.0402765","-0.454618","-0.889775","0.997269","0.0368759","-0.0639835"
"7","81707959456882","8.97282","-0.135147","0.296951","0","0","0","0.0568042","-0.89817","0.435964","-0.0384877","-0.438314","-0.897997","0.997643","0.0342308","-0.0594666"
"7","81707976333103","9.35599","-0.192627","0.181992","0","0","0","0.0503767","-0.921401","0.385335","-0.0387113","-0.387336","-0.921125","0.99798","0.0314865","-0.0551814"
"7","81707993087253","9.8158","-0.154312","0.0862122","0","0","0","0.0509832","-0.861877","0.504548","-0.0300808","-0.506301","-0.861832","0.998246","0.0287618","-0.0517388"
"7","81708009871921","10.0457","-0.0585175","0.162842","0","0","0","0.0478479","-0.853743","0.518492","-0.0273706","-0.520012","-0.85372","0.99848","0.0266573","-0.048249"
"7","81708027663669","10.0265","-0.0968323","0.258636","0","0","0","0.0422419","-0.888825","0.456295","-0.0282186","-0.457582","-0.888719","0.998709","0.0246652","-0.0444106"
"7","81708043380222","9.87326","-0.250092","0.52684","0","0","0","0.040244","-0.832592","0.552422","-0.0206667","-0.553445","-0.832629","0.998976","0.0220916","-0.0394798"
"7","81708060195407","9.8158","-0.269257","0.66095","0","0","0","0.0354437","-0.810843","0.584189","-0.0160747","-0.584943","-0.810915","0.999242","0.0193512","-0.0337666"
"7","81708077987155","9.85411","-0.0585175","0.66095","0","0","0","0.0301424","-0.828516","0.559153","-0.0134121","-0.559692","-0.828592","0.999456","0.0174763","-0.0279827"
"7","81708093764743","10.0074","0.765289","0.69928","0","0","0","0.0284158","-0.818862","0.573287","-0.00766162","-0.57368","-0.819044","0.999567","0.0188815","-0.0225754"
"7","81708110549411","10.3331","1.24425","0.316101","0","0","0","0.0305492","-0.801652","0.59701","-0.000689809","-0.597306","-0.802013","0.999533","0.024089","-0.0188002"
"7","81708127303562","10.7354","1.41667","0.162842","0","0","0","0.0344809","-0.81677","0.575932","0.00381548","-0.576163","-0.817326","0.999398","0.0303796","-0.0167502"
"7","81708144149265","10.8887","1.55078","0.411896","0","0","0","0.0391963","-0.863396","0.503001","0.00618543","-0.503169","-0.864166","0.999212","0.0369834","-0.0143819"
"7","81708160933933","10.9078","1.45499","1.0058","0","0","0","0.0409067","-0.830426","0.555625","0.0163962","-0.555458","-0.831383","0.999028","0.0431193","-0.0091061"
"7","81708177688083","10.6204","1.26341","1.58055","0","0","0","0.0414191","-0.855333","0.51642","0.0240159","-0.515862","-0.856335","0.998853","0.0478709","-0.000824894"
"7","81708194503269","9.91159","1.03351","1.54224","0","0","0","0.0425259","-0.895776","0.442466","0.0297435","-0.441535","-0.896751","0.998653","0.0512956","0.0078668"
"7","81708211318454","9.29852","0.535385","1.38898","0","0","0","0.041092","-0.904038","0.425472","0.0364069","-0.424195","-0.904839","0.998492","0.0526718","0.0154823"
"7","81708228042087","9.54758","-0.479996","0.756744","0","0","0","0.0339368","-0.883442","0.46731","0.0408094","-0.465964","-0.883862","0.99859","0.049066","0.0202395"
"7","81708244857273","10.6971","-1.87856","-0.431061","0","0","0","0.0237575","-0.871669","0.48952","0.0346664","-0.488645","-0.871794","0.999116","0.0376815","0.0186086"
"7","81708261702976","12.019","-2.95142","-2.2511","0","0","0","0.0149577","-0.894441","0.446935","0.0166578","-0.4467","-0.894529","0.999749","0.020825","0.00821777"
"7","81708278335056","12.2297","-2.89394","-3.63051","0","0","0","0.00770114","-0.877679","0.479187","-0.00731838","-0.479238","-0.877654","0.999944","0.00325206","-0.0101139"
"7","81708295211277","13.2068","-2.54909","-5.08653","0","0","0","0.00756422","-0.860671","0.509106","-0.0350589","-0.509036","-0.860031","0.999357","-0.0113433","-0.0340247"
"7","81708312118015","12.4213","-1.22717","-5.18233","0","0","0","0.00653632","-0.911565","0.411103","-0.0626054","-0.410679","-0.909628","0.998017","-0.0197917","-0.0597532"
"7","81708328780612","10.3905","1.1293","-4.24356","0","0","0","0.0197512","-0.902112","0.431049","-0.079771","-0.431181","-0.898732","0.996617","-0.0166342","-0.0804788"
"7","81708345534763","8.91536","2.98766","-2.97913","0","0","0","0.0229984","-0.962143","0.271572","-0.0914046","-0.27253","-0.957796","0.995548","-0.00279515","-0.0942121"
"7","81708362258396","9.01114","2.89186","-2.07867","0","0","0","0.0472986","-0.941648","0.33326","-0.0913159","-0.336312","-0.937313","0.994698","0.0139017","-0.101895"
"7","81708379134616","10.084","1.18677","-1.92542","0","0","0","0.0416474","-0.983044","0.178577","-0.100975","-0.181958","-0.978108","0.994017","0.0227038","-0.106841"
"7","81708395949802","10.4289","-1.09306","-1.15909","0","0","0","0.0419376","-0.974927","0.218537","-0.102337","-0.221771","-0.969714","0.993865","0.0183029","-0.109072"
"7","81708412673435","10.0648","-2.12761","-0.584335","0","0","0","0.0391206","-0.954516","0.295582","-0.100027","-0.298064","-0.949291","0.994215","0.00757054","-0.107138"
"7","81708429458103","9.77748","-2.37666","-0.737595","0","0","0","0.032305","-0.933907","0.356054","-0.100059","-0.357472","-0.928549","0.994457","-0.00562957","-0.104994"
"7","81708446303806","9.26021","-1.22717","-0.584335","0","0","0","0.0169239","-0.955603","0.29417","-0.10295","-0.294314","-0.950148","0.994543","-0.0142046","-0.10336"
"7","81708463057956","9.1261","-0.173462","-0.56517","0","0","0","0.0197179","-0.939442","0.34214","-0.100718","-0.342332","-0.934165","0.99472","-0.0160398","-0.101369"
"7","81708479842624","9.35599","0.382126","-0.852554","0","0","0","0.0217037","-0.93783","0.346415","-0.098973","-0.34681","-0.932699","0.994853","-0.0140427","-0.100347"
"7","81708496718845","9.68169","0.458755","-1.04413","0","0","0","0.0307851","-0.914794","0.402746","-0.0961534","-0.403778","-0.90979","0.99489","-0.0107174","-0.100391"
"7","81708513289890","9.91159","0.382126","-1.08244","0","0","0","0.0371408","-0.898105","0.438211","-0.0941077","-0.439708","-0.893197","0.994869","-0.00806492","-0.10085"
"7","81708531234226","9.47095","0.803604","-0.316116","0","0","0","0.0417461","-0.887932","0.458077","-0.0898438","-0.459955","-0.883385","0.995081","-0.00427751","-0.0989765"
"7","81708546981296","8.99199","1.2251","-0.143692","0","0","0","0.0379675","-0.925087","0.377853","-0.0873544","-0.379751","-0.920955","0.995454","0.00195924","-0.0952286"
"7","81708563826999","8.70461","1.55078","-0.105377","0","0","0","0.0470317","-0.90943","0.413188","-0.0790003","-0.415737","-0.906047","0.995765","0.00997094","-0.0913981"
"7","81708580520114","8.70461","1.64658","-0.0478973","0","0","0","0.0521755","-0.915765","0.398312","-0.0726892","-0.40128","-0.913067","0.995989","0.0186867","-0.0875032"
"7","81708597213230","8.70461","1.53162","-0.0287476","0","0","0","0.0553679","-0.92994","0.363518","-0.0680357","-0.366744","-0.927831","0.996145","0.0266398","-0.083575"
"7","81708613997898","8.72377","1.32088","-0.00958252","0","0","0","0.0634557","-0.90756","0.4151","-0.0586153","-0.418609","-0.906273","0.996262","0.033177","-0.07976"
"7","81708630813083","8.66629","1.2251","0.00956726","0","0","0","0.0682551","-0.895424","0.43995","-0.0508451","-0.443528","-0.894817","0.996371","0.0387065","-0.075801"
"7","81708647536716","8.8004","1.2251","0.0670471","0","0","0","0.0704808","-0.899613","0.430962","-0.0457447","-0.434497","-0.899511","0.996464","0.043684","-0.0717763"
"7","81708664351902","9.01114","1.2251","0.143677","0","0","0","0.0744531","-0.881625","0.466041","-0.0367676","-0.469447","-0.882195","0.996546","0.0485469","-0.067367"
"7","81708681136570","9.37515","0.937714","0.335266","0","0","0","0.0748218","-0.887568","0.454559","-0.0315511","-0.457716","-0.888539","0.996698","0.0521403","-0.0622509"
"7","81708697921237","9.68169","0.880249","0.411896","0","0","0","0.0743107","-0.886154","0.457394","-0.0254708","-0.460199","-0.887451","0.99691","0.0542969","-0.0567687"
"7","81708714736423","9.96906","0.937714","0.392746","0","0","0","0.0729321","-0.898224","0.433444","-0.0214764","-0.435915","-0.899731","0.997106","0.0563105","-0.0510828"
"7","81708731460056","9.94991","1.1293","0.603485","0","0","0","0.0735659","-0.882231","0.465034","-0.0122972","-0.467064","-0.884138","0.997215","0.0593238","-0.045209"
"7","81708748305759","9.58589","1.03351","0.871704","0","0","0","0.0729817","-0.872614","0.482927","-0.003526","-0.484441","-0.874817","0.997327","0.0621429","-0.0384322"
"7","81708765090427","9.24104","0.650345","1.19739","0","0","0","0.0697457","-0.87175","0.48496","0.00456418","-0.48586","-0.874025","0.997554","0.0631729","-0.0299079"
"7","81708781844577","9.10693","0.171387","1.17822","0","0","0","0.0647326","-0.895349","0.440636","0.00785505","-0.441091","-0.897428","0.997872","0.061554","-0.02152"
"7","81708798629245","9.66252","-0.0776672","1.15907","0","0","0","0.0563441","-0.845518","0.530966","0.0192507","-0.530792","-0.847284","0.998226","0.0579609","-0.0136302"
"7","81708815413913","10.3714","0.075592","1.10159","0","0","0","0.0512377","-0.885408","0.461983","0.0196648","-0.461606","-0.886867","0.998493","0.0545258","-0.00624024"
"7","81708832198581","11.1186","0.49707","0.986649","0","0","0","0.0457468","-0.849127","0.526204","0.0279098","-0.525463","-0.850358","0.998563","0.0535875","-0.00033929"
"7","81708848983249","11.6167","0.822769","1.13991","0","0","0","0.0378984","-0.764839","0.643106","0.0391681","-0.641937","-0.765756","0.998514","0.0542102","0.00562891"
"7","81708865798435","11.7891","1.35919","1.15907","0","0","0","0.0419251","-0.841352","0.538858","0.0408723","-0.537437","-0.842313","0.998284","0.0573385","0.011856"
"7","81708882583103","11.176","1.62741","0.69928","0","0","0","0.0460296","-0.861409","0.505823","0.0451109","-0.50405","-0.862496","0.997921","0.0625184","0.0156577"
"7","81708899306736","10.199","1.32088","0.201157","0","0","0","0.050971","-0.877236","0.477346","0.0465277","-0.475362","-0.878559","0.997616","0.0669908","0.0165861"
"7","81708916121921","10.1223","0.899399","-0.775909","0","0","0","0.0499026","-0.830264","0.555132","0.048869","-0.553129","-0.831661","0.997558","0.0686308","0.0129716"
"7","81708932998142","11.5975","0.918564","-2.02121","0","0","0","0.0593531","-0.873776","0.482692","0.0362662","-0.481338","-0.875784","0.997578","0.0694859","0.00311964"
"7","81708949660739","13.7624","1.45499","-3.53471","0","0","0","0.0696299","-0.884703","0.460925","0.0207079","-0.460665","-0.887333","0.997358","0.0713296","-0.0137557"
"7","81708966506443","14.9694","1.43584","-4.39684","0","0","0","0.0817528","-0.893261","0.442043","0.00164855","-0.443405","-0.89632","0.996651","0.0740054","-0.034777"
"7","81708983260593","11.4634","-0.230942","-6.77246","0","0","0","0.0928278","-0.882539","0.460985","-0.0281846","-0.465128","-0.884795","0.995283","0.0691409","-0.0680507"
"7","81709000075778","9.18356","-1.16969","-4.39684","0","0","0","0.0997649","-0.84762","0.521141","-0.0457998","-0.52711","-0.848562","0.993956","0.0607885","-0.0914079"
"7","81709016829929","8.07239","-1.72528","-2.17447","0","0","0","0.0993885","-0.814011","0.572282","-0.0549395","-0.578742","-0.813658","0.993531","0.0494273","-0.102242"
"7","81709033614597","8.51303","-1.26549","-0.929184","0","0","0","0.0923027","-0.8146","0.572631","-0.0625254","-0.578693","-0.813145","0.993766","0.0392515","-0.104348"
"7","81709050460300","9.72","-0.192627","-1.42729","0","0","0","0.0908363","-0.800523","0.592378","-0.0642569","-0.598309","-0.798685","0.993791","0.0344852","-0.105787"
"7","81709067153415","10.812","0.937714","-2.2511","0","0","0","0.0907053","-0.834879","0.542909","-0.0729501","-0.549262","-0.83246","0.993202","0.0359033","-0.110725"
"7","81709083968601","11.1952","1.70406","-2.53848","0","0","0","0.0897215","-0.893727","0.439547","-0.0865079","-0.446652","-0.890516","0.992203","0.0418741","-0.117389"
"7","81709100753269","10.2181","2.22133","-2.61511","0","0","0","0.108704","-0.845775","0.522349","-0.0789236","-0.531147","-0.843596","0.990936","0.0504766","-0.124489"
"7","81709117537937","8.12987","2.08722","-2.65343","0","0","0","0.108143","-0.912925","0.39354","-0.0976038","-0.403699","-0.909671","0.989332","0.059964","-0.132762"
"7","81709134353122","7.80417","1.09099","-1.75299","0","0","0","0.113747","-0.916184","0.384277","-0.101514","-0.395481","-0.912847","0.98831","0.0648244","-0.13799"
"7","81709151107273","8.28313","0.228867","-1.35066","0","0","0","0.104747","-0.946743","0.304478","-0.112604","-0.315483","-0.942226","0.988104","0.0644097","-0.139653"
"7","81709167891941","9.26021","-0.345886","-1.54225","0","0","0","0.098774","-0.952669","0.287516","-0.117082","-0.298048","-0.947343","0.988198","0.0599098","-0.14098"
"7","81709184676609","9.94991","-0.479996","-1.52309","0","0","0","0.0926548","-0.955304","0.280731","-0.120494","-0.29063","-0.949218","0.988381","0.0541232","-0.142037"
"7","81709201461277","10.2564","-0.57579","-1.1974","0","0","0","0.0901894","-0.946799","0.308931","-0.118998","-0.318218","-0.940519","0.98879","0.0480626","-0.141367"
"7","81709218276462","9.89243","-0.882324","-0.469391","0","0","0","0.0873952","-0.932432","0.350618","-0.113771","-0.359005","-0.926376","0.989656","0.0410705","-0.137459"
"7","81709235030612","9.18356","-1.24632","0.258636","0","0","0","0.0741657","-0.94132","0.329265","-0.11166","-0.335936","-0.935243","0.990975","0.0325972","-0.130023"
"7","81709251815280","8.70461","-1.41875","0.50769","0","0","0","0.0607085","-0.946761","0.31616","-0.107211","-0.321097","-0.940958","0.992381","0.0232284","-0.120996"
"7","81709268630466","8.39807","-0.824844","0.239471","0","0","0","0.0519448","-0.947508","0.315484","-0.102441","-0.3193","-0.942101","0.993382","0.0166186","-0.11365"
"7","81709285384616","8.47472","-0.230942","-0.0287476","0","0","0","0.0472492","-0.947658","0.315771","-0.098193","-0.318999","-0.942655","0.994045","0.0135332","-0.108126"
"7","81709302199802","8.95367","0.0181122","-0.335281","0","0","0","0.0469415","-0.941769","0.332969","-0.0939937","-0.336022","-0.937152","0.994466","0.0126943","-0.104294"
"7","81709318953952","9.56674","0.133072","-0.488541","0","0","0","0.0454511","-0.943816","0.327332","-0.0916535","-0.330228","-0.939441","0.994753","0.0126976","-0.101513"
"7","81709335769138","10.0074","0.0947571","-0.546021","0","0","0","0.0539648","-0.902546","0.427199","-0.0839455","-0.430408","-0.898722","0.995008","0.012638","-0.0989916"
"7","81709352553806","10.2373","-0.0968323","-0.469391","0","0","0","0.0463553","-0.929216","0.366619","-0.0850532","-0.369353","-0.925389","0.995297","0.0117145","-0.0961542"
"7","81709369307956","10.4289","-0.115982","-0.277802","0","0","0","0.0359316","-0.958913","0.281415","-0.0858788","-0.283518","-0.955114","0.995658","0.0101512","-0.0925376"
"7","81709385573825","10.4289","0.0564423","0.0478973","0","0","0","0.0469678","-0.897847","0.437796","-0.0742638","-0.440205","-0.894821","0.996132","0.0095154","-0.087353"
"7","81709402938327","10.0074","0.267181","0.316101","0","0","0","0.0471685","-0.881779","0.469297","-0.0665848","-0.471551","-0.879321","0.996665","0.0102282","-0.0809554"
"7","81709419692478","9.50926","0.248016","0.66095","0","0","0","0.0397056","-0.915784","0.399705","-0.0626226","-0.401514","-0.913709","0.997247","0.0112488","-0.0732912"
"7","81709436477146","9.79663","-0.0585175","0.50769","0","0","0","0.0421003","-0.870385","0.490568","-0.0524523","-0.492252","-0.868871","0.997736","0.0108483","-0.0663776"
"7","81709453292331","10.1798","-0.422516","0.58432","0","0","0","0.0354809","-0.886341","0.461672","-0.0494795","-0.462955","-0.885","0.998145","0.00855726","-0.0602817"
"7","81709470076999","10.1032","-0.211777","0.181992","0","0","0","0.0315212","-0.879469","0.474911","-0.0451673","-0.475915","-0.878331","0.998482","0.00623564","-0.0547247"
"7","81709486800632","10.1798","0.324646","0.0670471","0","0","0","0.029534","-0.890242","0.45453","-0.043052","-0.455439","-0.889225","0.998636","0.00669389","-0.0517776"
"7","81709503585300","10.3522","1.20593","0.737595","0","0","0","0.0311011","-0.892152","0.450663","-0.0354465","-0.451582","-0.891525","0.998887","0.0117529","-0.0456684"
"7","81709520400486","10.5055","1.68489","1.52307","0","0","0","0.0349541","-0.870504","0.490918","-0.0212119","-0.491753","-0.870476","0.999164","0.0200134","-0.0356538"
"7","81709537154636","10.6396","1.55078","1.63803","0","0","0","0.0352836","-0.914379","0.403318","-0.0109766","-0.4039","-0.914737","0.999317","0.0278482","-0.0242878"
"7","81709553389987","9.93074","0.880249","1.13991","0","0","0","0.036134","-0.932689","0.358867","-0.00246167","-0.359183","-0.933264","0.999344","0.0328392","-0.0152747"
"7","81709570723972","10.4097","-0.537476","0.52684","0","0","0","0.032285","-0.958186","0.284318","-0.00154942","-0.284514","-0.958671","0.999478","0.0305102","-0.0106702"
"7","81709587478122","11.1952","-2.33835","-0.81424","0","0","0","0.0211557","-0.962495","0.270473","-0.00677246","-0.270666","-0.96265","0.999753","0.0185337","-0.0122446"
"7","81709604262790","12.3447","-3.52617","-3.03659","0","0","0","0.0058338","-0.96288","0.269865","-0.0237337","-0.269927","-0.962588","0.999701","-0.000789361","-0.0244274"
"7","81709621047458","13.2643","-2.56825","-5.43138","0","0","0","0.00261235","-0.931182","0.364546","-0.051349","-0.364191","-0.929908","0.998677","-0.0162898","-0.0487667"
"7","81709637832126","12.5171","-0.863159","-7.02151","0","0","0","0.00505407","-0.945671","0.325085","-0.0838057","-0.324346","-0.942219","0.996469","-0.022482","-0.080892"
"7","81709654769382","10.9461","1.18677","-6.17856","0","0","0","0.00992739","-0.970053","0.242691","-0.111926","-0.242256","-0.963735","0.993667","-0.0175961","-0.110979"
"7","81709671462497","10.3331","2.47038","-3.87956","0","0","0","0.0213303","-0.978638","0.20448","-0.126647","-0.205524","-0.970423","0.991719","-0.00519732","-0.128325"
"7","81709688247165","10.8312","2.22133","-2.23195","0","0","0","0.0193681","-0.996214","0.0847528","-0.133495","-0.0865864","-0.98726","0.99086","0.00780731","-0.134666"
"7","81709705062351","11.4826","-0.844009","-1.13992","0","0","0","0.0259353","-0.989","0.145626","-0.131202","-0.147783","-0.980279","0.991016","0.00631732","-0.133592"
"7","81709721847019","10.4863","-2.49162","-0.258636","0","0","0","0.0152971","-0.987707","0.155568","-0.128001","-0.15624","-0.97939","0.991656","-0.00493102","-0.128817"
"7","81709738570652","9.54758","-3.21964","0.239471","0","0","0","0.0031178","-0.981122","0.193364","-0.123371","-0.192265","-0.973557","0.992356","-0.0208202","-0.121642"
"7","81709755416355","9.29852","-2.89394","-0.182007","0","0","0","-0.00140962","-0.958508","0.285061","-0.121343","-0.282791","-0.951475","0.99261","-0.0359312","-0.115909"
"7","81709772170505","9.10693","-1.36128","-0.890869","0","0","0","-0.0061767","-0.949855","0.312628","-0.122173","-0.309575","-0.942994","0.99249","-0.0440194","-0.114135"
"7","81709788985691","8.83871","0.190536","-1.36983","0","0","0","0.00503564","-0.921626","0.388046","-0.123022","-0.385674","-0.914397","0.992391","-0.0431336","-0.115322"
"7","81709805739841","8.60883","1.18677","-1.71468","0","0","0","0.00932821","-0.932664","0.360626","-0.123619","-0.358951","-0.925134","0.992286","-0.0359505","-0.118644"
"7","81709822555027","8.41724","1.07182","-1.84879","0","0","0","0.0108382","-0.953023","0.302705","-0.125623","-0.301622","-0.945116","0.992019","-0.0277834","-0.122991"
"7","81709839309177","8.72377","0.0564423","-1.94456","0","0","0","0.0163814","-0.951181","0.3082","-0.12883","-0.30768","-0.942728","0.991531","-0.0242621","-0.12758"
"7","81709856093845","8.87703","0.113907","-1.69551","0","0","0","0.0231129","-0.940671","0.338531","-0.131132","-0.338549","-0.931767","0.991095","-0.0228563","-0.131176"
"7","81709872878513","8.81956","0.976028","-1.2932","0","0","0","0.0318197","-0.931369","0.362682","-0.130128","-0.363638","-0.922407","0.990986","-0.0178445","-0.132768"
"7","81709889724216","8.78125","2.25964","-0.871704","0","0","0","0.042016","-0.93158","0.361099","-0.125102","-0.36348","-0.923164","0.991254","-0.00638669","-0.131815"
"7","81709906478366","8.83871","3.14091","-0.56517","0","0","0","0.050631","-0.948609","0.312375","-0.119203","-0.31628","-0.941147","0.991578","0.0104151","-0.129091"
"7","81709923263034","8.83871","3.1026","-0.316116","0","0","0","0.0720573","-0.928063","0.365386","-0.105712","-0.371381","-0.922443","0.991783","0.0278432","-0.124868"
"7","81709940047702","8.8004","2.4129","-0.143692","0","0","0","0.0740332","-0.956423","0.282443","-0.102669","-0.289025","-0.9518","0.991957","0.0414665","-0.119593"
"7","81709956832370","8.8004","1.45499","-0.220322","0","0","0","0.0738293","-0.97237","0.221464","-0.100615","-0.2282","-0.968401","0.992182","0.0492137","-0.114683"
"7","81709973647556","8.83871","0.63118","-0.201172","0","0","0","0.0736411","-0.975474","0.207432","-0.0965222","-0.213991","-0.972055","0.992603","0.0515614","-0.109913"
"7","81709990401706","9.22188","0.171387","-0.0862122","0","0","0","0.0780003","-0.956225","0.282047","-0.0862402","-0.28832","-0.953643","0.993216","0.0500606","-0.104954"
"7","81710007186374","9.70084","0.248016","-0.0478973","0","0","0","0.0759758","-0.952915","0.293565","-0.0808127","-0.299332","-0.950721","0.993829","0.0485081","-0.0997496"
"7","81710023971042","10.2373","0.324646","0.143677","0","0","0","0.0649234","-0.979031","0.193088","-0.0826681","-0.198108","-0.976688","0.99446","0.0474476","-0.0937966"
"7","81710040755710","10.5246","0.305496","0.431061","0","0","0","0.0692375","-0.956363","0.283858","-0.0695601","-0.288476","-0.954957","0.995172","0.0463736","-0.0864981"
"7","81710057540378","10.6588","0.343811","0.737595","0","0","0","0.0572409","-0.985674","0.158652","-0.069447","-0.162458","-0.984268","0.995942","0.0453225","-0.0777514"
"7","81710074264011","10.6013","0.573715","1.12076","0","0","0","0.0610668","-0.966209","0.250423","-0.053828","-0.253714","-0.96578","0.996681","0.0454973","-0.0675026"
"7","81710091079196","10.2564","0.61203","1.58055","0","0","0","0.0572366","-0.974639","0.216337","-0.0438292","-0.218937","-0.974754","0.997398","0.0463098","-0.0552489"
"7","81710107894382","9.75832","0.535385","1.61887","0","0","0","0.0567449","-0.963748","0.260711","-0.0294447","-0.262634","-0.964446","0.997954","0.0470509","-0.0432804"
"7","81710124679050","9.52841","0.362961","1.42729","0","0","0","0.0529133","-0.971499","0.231062","-0.0204995","-0.232394","-0.972406","0.998389","0.0467166","-0.032212"
"7","81710141433200","11.4251","0.899399","0.986649","0","0","0","0.0513819","-0.983851","0.171455","-0.00766463","-0.172065","-0.985056","0.99865","0.0492999","-0.0163819"
"7","81710158217868","11.4251","0.899399","0.986649","0","0","0","0.0513819","-0.983851","0.171455","-0.00766463","-0.172065","-0.985056","0.99865","0.0492999","-0.0163819"
"7","81710174453220","11.6741","0.956879","1.25487","0","0","0","0.0520202","-0.991051","0.122929","-0.00271819","-0.123235","-0.992374","0.998642","0.0512893","-0.0091046"
"7","81710191817722","11.3676","1.20593","1.21655","0","0","0","0.0530058","-0.970821","0.233875","0.0112118","-0.233611","-0.972266","0.998531","0.0541579","-0.0014981"
"7","81710208602390","10.0648","1.37836","0.488525","0","0","0","0.054304","-0.940282","0.336036","0.0218513","-0.335333","-0.941846","0.998285","0.0584888","0.00233644"
"7","81710225417575","9.29852","1.09099","0.181992","0","0","0","0.0597758","-0.974965","0.214172","0.0166256","-0.213554","-0.97679","0.998073","0.0619491","0.00344406"
"7","81710242171726","10.7929","1.14845","-0.81424","0","0","0","0.0625984","-0.970745","0.23181","0.0159389","-0.231263","-0.972761","0.997912","0.0645881","0.000995882"
"7","81710258925876","14.0115","1.39752","-2.99828","0","0","0","0.0678073","-0.955443","0.287281","0.00791845","-0.28742","-0.957772","0.997667","0.0672187","-0.0119235"
"7","81710275680027","16.1572","0.382126","-6.08276","0","0","0","0.0725558","-0.971571","0.225355","-0.0206522","-0.227366","-0.97359","0.997151","0.0659856","-0.0365618"
"7","81710292464695","12.2489","0.362961","-6.37013","0","0","0","0.0802918","-0.953337","0.291036","-0.0464018","-0.295237","-0.954296","0.995691","0.0631176","-0.0679417"
"7","81710309340915","8.8004","0.113907","-4.37767","0","0","0","0.0818275","-0.96617","0.24458","-0.0727608","-0.250539","-0.965368","0.993987","0.0611978","-0.0908003"
"7","81710326064548","6.73131","-0.78653","-2.5768","0","0","0","0.0841101","-0.952482","0.292751","-0.0820083","-0.299412","-0.950593","0.993076","0.0559464","-0.103295"
"7","81710342879734","6.46309","-1.59117","-1.94456","0","0","0","0.0780374","-0.95085","0.299658","-0.0915966","-0.306142","-0.947569","0.992734","0.0464981","-0.110985"
"7","81710359633884","7.97659","-1.22717","-1.94456","0","0","0","0.0785462","-0.923032","0.37662","-0.0939624","-0.38296","-0.918974","0.992472","0.0367937","-0.11681"
"7","81710376418552","9.8158","-0.211777","-2.34689","0","0","0","0.0704012","-0.944682","0.320343","-0.106102","-0.326409","-0.939255","0.99186","0.0321357","-0.123212"
"7","81710393264255","11.4059","0.918564","-2.46185","0","0","0","0.0769642","-0.933572","0.350029","-0.108747","-0.356836","-0.927816","0.991086","0.0333439","-0.128987"
"7","81710410018405","11.4251","2.35542","-2.04036","0","0","0","0.0848768","-0.936521","0.340184","-0.109868","-0.34813","-0.930986","0.990316","0.0416438","-0.132442"
"7","81710426803073","9.1261","3.3325","-2.21278","0","0","0","0.0975266","-0.947333","0.30504","-0.112372","-0.315023","-0.942408","0.988869","0.057632","-0.137177"
"7","81710443587741","8.45555","1.87648","-1.71468","0","0","0","0.0978605","-0.970627","0.219786","-0.122066","-0.230885","-0.965294","0.987686","0.0676358","-0.141075"
"7","81710460341892","8.64714","0.113907","-1.08244","0","0","0","0.0867892","-0.987289","0.133145","-0.130518","-0.143766","-0.980967","0.98764","0.0677596","-0.141336"
"7","81710477157077","9.62421","-1.0739","-1.04413","0","0","0","0.0802807","-0.986019","0.146016","-0.129153","-0.155543","-0.97935","0.98837","0.0597646","-0.139834"
"7","81710493941745","10.4289","-1.22717","-1.40814","0","0","0","0.0738759","-0.981608","0.176034","-0.128047","-0.184392","-0.974476","0.989013","0.0494497","-0.139314"
"7","81710510726413","10.5055","-0.844009","-1.31235","0","0","0","0.0685957","-0.977734","0.19832","-0.127598","-0.205754","-0.97025","0.989451","0.0412497","-0.138871"
"7","81710527511081","9.91159","-0.63327","-0.718445","0","0","0","0.0615603","-0.979079","0.193946","-0.12661","-0.200405","-0.971498","0.99004","0.03525","-0.136299"
"7","81710544295749","9.08778","-0.767365","0.00956726","0","0","0","0.0565985","-0.976162","0.209536","-0.121045","-0.215033","-0.969076","0.991032","0.0294851","-0.13033"
"7","81710561049900","8.55135","-0.920639","0.316101","0","0","0","0.0587647","-0.95338","0.295995","-0.109977","-0.300885","-0.947298","0.992195","0.0231149","-0.122532"
"7","81710577834568","8.45555","-0.556625","0.0862122","0","0","0","0.0430844","-0.975654","0.215044","-0.109295","-0.218554","-0.969685","0.993075","0.018275","-0.116051"
"7","81710594649753","8.60883","-0.0202026","-0.124527","0","0","0","0.0384257","-0.979172","0.199363","-0.105362","-0.202368","-0.973625","0.993691","0.016407","-0.110943"
"7","81710611434421","9.0303","0.324646","-0.277802","0","0","0","0.0389624","-0.977618","0.206749","-0.100906","-0.209698","-0.972545","0.994133","0.0170305","-0.106818"
"7","81710628219089","9.45178","0.267181","-0.316116","0","0","0","0.0420754","-0.970168","0.238755","-0.0959672","-0.241786","-0.965572","0.994495","0.0177141","-0.103278"
"7","81710645003757","9.75832","0.152222","-0.239487","0","0","0","0.0357109","-0.982684","0.181818","-0.0942772","-0.184435","-0.978313","0.994905","0.0177952","-0.099231"
"7","81710661788425","10.1032","-0.0393524","-0.258636","0","0","0","0.0329429","-0.984896","0.169984","-0.0908522","-0.172323","-0.980842","0.995319","0.0168684","-0.0951568"
"7","81710678542575","10.3522","-0.0968323","-0.143692","0","0","0","0.0418413","-0.953892","0.29722","-0.0820015","-0.299756","-0.950485","0.995753","0.015397","-0.0907627"
"7","81710695327243","10.2948","0.075592","0.105362","0","0","0","0.0348699","-0.969659","0.241964","-0.0790766","-0.244029","-0.966539","0.996258","0.0145694","-0.0851865"
"7","81710712142429","10.2373","0.0947571","0.50769","0","0","0","0.0339355","-0.966673","0.253756","-0.0716768","-0.255603","-0.964121","0.99685","0.0145295","-0.077962"
"7","81710728957614","10.199","-0.211777","0.814224","0","0","0","0.0354026","-0.943018","0.330854","-0.0612657","-0.332487","-0.941116","0.997493","0.0130479","-0.0695455"
"7","81710745711765","10.0648","-0.345886","0.948334","0","0","0","0.022888","-0.978144","0.206667","-0.0568755","-0.20766","-0.976546","0.998119","0.0105969","-0.0603853"
"7","81710762496433","9.83495","-0.460846","1.3315","0","0","0","0.0223532","-0.952585","0.303451","-0.0457979","-0.304184","-0.951512","0.998701","0.00737186","-0.0504259"
"7","81710779281101","9.26021","0.0181122","1.15907","0","0","0","0.0204747","-0.93325","0.358644","-0.0357109","-0.359173","-0.932587","0.999152","0.00628698","-0.0406812"
"7","81710796065769","9.35599","0.55455","1.04413","0","0","0","0.0182558","-0.947262","0.319941","-0.0286188","-0.320358","-0.946864","0.999424","0.00812946","-0.0329579"
"7","81710812880954","10.0074","1.18677","1.46561","0","0","0","0.0211697","-0.928677","0.370284","-0.0168362","-0.370645","-0.928622","0.999634","0.0134244","-0.0234819"
"7","81710829635105","10.7162","1.68489","2.07867","0","0","0","0.0242026","-0.914586","0.403667","-0.00167657","-0.403822","-0.914836","0.999706","0.0214646","-0.0113069"
"7","81710846419773","10.7162","1.64658","2.23193","0","0","0","0.0285361","-0.971736","0.234338","0.00906251","-0.234172","-0.972153","0.999552","0.0298651","0.00212401"
"7","81710863173923","9.70084","0.362961","1.12076","0","0","0","0.0289504","-0.974421","0.222857","0.0162568","-0.222462","-0.974806","0.999449","0.0318439","0.00940057"
"7","81710879989109","9.66252","-0.748215","0.6418","0","0","0","0.0223704","-0.951166","0.307867","0.0209934","-0.307429","-0.951339","0.999529","0.027745","0.0130908"
"7","81710896804294","10.3522","-2.07013","-0.871704","0","0","0","0.0132472","-0.959501","0.281393","0.0146489","-0.281201","-0.959537","0.999805","0.0168332","0.0103305"
"7","81710913558445","11.1952","-3.62196","-3.38144","0","0","0","-0.000783017","-0.962604","0.270911","-0.00560207","-0.270903","-0.962591","0.999984","-0.00227139","-0.00518045"
"7","81710930343112","12.3447","-3.64111","-5.83371","0","0","0","-0.0102532","-0.943039","0.332525","-0.0390919","-0.33191","-0.942501","0.999183","-0.0226627","-0.033462"
"7","81710947188816","14.2222","-2.49162","-8.13271","0","0","0","-0.0197696","-0.974187","0.224877","-0.0779096","-0.222735","-0.971761","0.996764","-0.0367314","-0.0714951"
"7","81710963912448","13.6666","0.248016","-6.88741","0","0","0","-0.0132384","-0.975683","0.218788","-0.110727","-0.216031","-0.970088","0.993763","-0.0370683","-0.105175"
"7","81710980727634","12.3447","2.83438","-4.41599","0","0","0","0.00141459","-0.980974","0.194132","-0.127043","-0.192735","-0.972992","0.991896","-0.0232867","-0.124898"
"7","81710997451267","11.0802","3.69652","-1.1974","0","0","0","0.00604901","-0.997507","0.070302","-0.128488","-0.0704958","-0.989202","0.991693","-0.00304929","-0.128595"
"7","81711014296970","10.7162","1.68489","-1.08244","0","0","0","0.0254918","-0.991619","0.126656","-0.124608","-0.128861","-0.983803","0.991879","0.00929648","-0.126849"
"7","81711031051120","9.75832","-0.671585","-1.10161","0","0","0","0.0190773","-0.996508","0.0812894","-0.12528","-0.083046","-0.98864","0.991938","0.00867656","-0.126427"
"7","81711047835788","8.85788","-2.39583","-0.277802","0","0","0","0.00803183","-0.996733","0.0803699","-0.123055","-0.0807469","-0.989109","0.992367","-0.00194556","-0.123301"
"7","81711064589939","8.93451","-3.33458","-0.0862122","0","0","0","-0.00174425","-0.99011","0.140279","-0.119314","-0.139071","-0.983068","0.992855","-0.018452","-0.117892"
"7","81711081374607","9.0303","-2.70236","-0.641815","0","0","0","-0.00968993","-0.979329","0.202043","-0.119396","-0.199474","-0.972602","0.992799","-0.0335476","-0.114995"
"7","81711098159275","8.72377","-1.16969","-0.81424","0","0","0","-0.0150529","-0.976259","0.216083","-0.119671","-0.212795","-0.969741","0.9927","-0.0404563","-0.113627"
"7","81711114943943","8.37892","-0.0393524","-0.948334","0","0","0","-0.0121465","-0.970839","0.239423","-0.119708","-0.236307","-0.964276","0.992735","-0.0403735","-0.113347"
"7","81711131759128","8.2065","0.439606","-1.13992","0","0","0","-0.00274394","-0.958954","0.283549","-0.119835","-0.281191","-0.95214","0.99279","-0.0365915","-0.114144"
"7","81711148543796","8.55135","0.0947571","-1.35066","0","0","0","0.00273211","-0.953316","0.301963","-0.1212","-0.300054","-0.946191","0.992624","-0.0340127","-0.116361"
"7","81711165328464","9.10693","0.248016","-1.21655","0","0","0","0.0112439","-0.938701","0.344549","-0.121321","-0.343306","-0.931355","0.99255","-0.0313291","-0.117745"
"7","81711182082614","9.54758","0.918564","-1.04413","0","0","0","0.0177801","-0.935196","0.353685","-0.119579","-0.353191","-0.927878","0.992665","-0.0257956","-0.11811"
"7","81711198897800","9.41347","2.06805","-0.852554","0","0","0","0.0205928","-0.955356","0.294737","-0.116301","-0.295087","-0.948366","0.993001","-0.0147486","-0.117185"
"7","81711215651950","8.97282","3.00681","-0.546021","0","0","0","0.038812","-0.945627","0.322929","-0.10801","-0.325249","-0.93944","0.993392","0.001582","-0.114761"
"7","81711232467136","8.60883","3.21756","-0.296951","0","0","0","0.042895","-0.976804","0.209794","-0.10465","-0.213225","-0.971382","0.993584","0.0197126","-0.111368"
"7","81711249251804","8.5705","2.48953","-0.162857","0","0","0","0.0622793","-0.960895","0.26982","-0.093675","-0.274779","-0.956933","0.993653","0.0343217","-0.107125"
"7","81711266036472","8.53218","1.56995","0.0862122","0","0","0","0.0665382","-0.968343","0.240592","-0.0880785","-0.245885","-0.965289","0.993889","0.0430376","-0.101651"
"7","81711282821140","8.64714","0.74614","0.239471","0","0","0","0.072048","-0.956317","0.283314","-0.0780048","-0.288584","-0.954272","0.994346","0.0466536","-0.0953892"
"7","81711299575290","9.0303","0.362961","0.201157","0","0","0","0.0643566","-0.977272","0.201984","-0.0778326","-0.206703","-0.975303","0.994887","0.0470463","-0.0893663"
"7","81711316390476","9.29852","0.152222","0.220322","0","0","0","0.0594184","-0.983517","0.170772","-0.074375","-0.174961","-0.981762","0.995459","0.0456336","-0.083545"
"7","81711333175144","9.64337","0.248016","0.546005","0","0","0","0.0622208","-0.965841","0.251557","-0.0628794","-0.255338","-0.964805","0.99608","0.0442132","-0.0766188"
"7","81711349929294","10.1223","0.650345","1.0058","0","0","0","0.0597476","-0.969108","0.239292","-0.0545644","-0.242532","-0.968608","0.996721","0.0448151","-0.0673695"
"7","81711366713962","10.3905","0.918564","1.19739","0","0","0","0.0576757","-0.978046","0.200248","-0.0463035","-0.202987","-0.978086","0.997261","0.0471396","-0.0569943"
"7","81711383529148","10.5055","0.803604","1.38898","0","0","0","0.0577072","-0.977168","0.204483","-0.0346532","-0.206661","-0.977799","0.997732","0.0493401","-0.0457878"
"7","81711400313816","10.3714","0.382126","1.35065","0","0","0","0.0555829","-0.977893","0.201583","-0.0245731","-0.203174","-0.978834","0.998152","0.0494529","-0.0353229"
"7","81711417067966","10.3905","0.075592","0.814224","0","0","0","0.0523595","-0.970611","0.234888","-0.0154449","-0.235969","-0.971638","0.998509","0.0472467","-0.0273463"
"7","81711433852634","10.3139","0.152222","0.546005","0","0","0","0.0488411","-0.972596","0.227313","-0.0112073","-0.228104","-0.973572","0.998744","0.0450028","-0.022041"
"7","81711450667820","11.176","0.0372772","0.986649","0","0","0","0.0448158","-0.985833","0.161634","-0.00913588","-0.162194","-0.986717","0.998954","0.0427438","-0.0162753"
"7","81711467452487","12.0573","-0.0968323","1.52307","0","0","0","0.0383261","-0.88485","0.464296","0.0117636","-0.464206","-0.885649","0.999196","0.0394053","-0.00738215"
"7","81711484267673","11.5784","0.458755","0.967484","0","0","0","0.0330601","-0.857796","0.512927","0.0192524","-0.512565","-0.858432","0.999268","0.0382549","-0.000430848"
"7","81711501021823","11.0611","1.1293","-0.69928","0","0","0","0.0387117","-0.922725","0.383511","0.0143369","-0.383246","-0.923535","0.999148","0.0412499","-0.0016071"
"7","81711517806491","12.2681","1.79984","-2.2511","0","0","0","0.048339","-0.945625","0.321648","0.00431087","-0.321824","-0.94679","0.998822","0.0471534","-0.0114802"
"7","81711534560642","14.5862","2.91103","-3.87956","0","0","0","0.0641193","-0.929461","0.363304","-0.00607193","-0.36441","-0.931219","0.997924","0.0575031","-0.0290093"
"7","81711551375827","15.7357","3.1026","-5.31644","0","0","0","0.0800944","-0.961358","0.263393","-0.0313079","-0.266538","-0.963316","0.996295","0.0689099","-0.0514463"
"7","81711568129978","12.019","2.60449","-7.17479","0","0","0","0.103483","-0.923637","0.369034","-0.0477562","-0.375212","-0.925708","0.993484","0.0781712","-0.0829374"
"7","81711584945163","7.7467","0.68866","-4.58841","0","0","0","0.10449","-0.964258","0.243492","-0.0829194","-0.252426","-0.964057","0.991063","0.0805442","-0.106332"
"7","81711601729831","6.80794","-1.03558","-2.59595","0","0","0","0.106168","-0.952098","0.286771","-0.091625","-0.296541","-0.950615","0.990118","0.0746494","-0.118719"
"7","81711618514499","7.61259","-2.51077","-1.31235","0","0","0","0.0878771","-0.968632","0.232443","-0.105095","-0.241059","-0.964803","0.990572","0.0603554","-0.122982"
"7","81711635299167","9.27936","-2.20424","-1.00581","0","0","0","0.0878502","-0.922579","0.375673","-0.0967489","-0.38325","-0.918564","0.991424","0.0443501","-0.122927"
"7","81711652114353","10.448","-0.901474","-1.96373","0","0","0","0.0691284","-0.957931","0.27855","-0.110255","-0.284844","-0.952212","0.991496","0.0351132","-0.125308"
"7","81711668868503","11.176","0.592865","-2.71091","0","0","0","0.0776681","-0.935765","0.343963","-0.111571","-0.350996","-0.929706","0.990717","0.0338322","-0.131666"
"7","81711685653171","10.6779","2.10637","-2.86417","0","0","0","0.0885627","-0.929323","0.358491","-0.114566","-0.367021","-0.923131","0.98946","0.040684","-0.138973"
"7","81711702437839","9.3943","2.91103","-2.84502","0","0","0","0.0954379","-0.949858","0.297762","-0.123491","-0.308114","-0.9433","0.987746","0.0532557","-0.146705"
"7","81711719222507","8.74294","1.30173","-2.05952","0","0","0","0.0962634","-0.967824","0.232487","-0.132891","-0.243978","-0.960633","0.986445","0.0615783","-0.152101"
"7","81711736007175","9.18356","-0.0968323","-1.75299","0","0","0","0.0952308","-0.968313","0.230869","-0.135774","-0.242391","-0.960631","0.986152","0.0601357","-0.154555"
"7","81711752730808","10.0074","-0.901474","-1.69551","0","0","0","0.0891712","-0.967803","0.235383","-0.138251","-0.246063","-0.959343","0.986375","0.0530039","-0.155741"
"7","81711769545993","10.3522","-0.939789","-1.6572","0","0","0","0.0640539","-0.990685","0.120168","-0.149447","-0.12858","-0.980374","0.986693","0.044838","-0.156291"
"7","81711786300144","10.1415","-0.614105","-1.36983","0","0","0","0.0768019","-0.965681","0.248116","-0.140859","-0.256864","-0.956127","0.987046","0.038483","-0.155753"
"7","81711803115329","9.3943","-0.384201","-0.795074","0","0","0","0.0673848","-0.97361","0.218043","-0.141591","-0.22566","-0.963862","0.987629","0.0340768","-0.15306"
"7","81711819899997","8.81956","-0.63327","-0.182007","0","0","0","0.0553027","-0.983095","0.174546","-0.139926","-0.180719","-0.97353","0.988616","0.0294153","-0.147555"
"7","81711836684665","8.47472","-0.0202026","-0.277802","0","0","0","0.0391908","-0.98387","0.17454","-0.124024","-0.178113","-0.976163","0.991505","0.0166093","-0.129004"
"7","81711853438816","8.47472","-0.0202026","-0.277802","0","0","0","0.0391908","-0.98387","0.17454","-0.124024","-0.178113","-0.976163","0.991505","0.0166093","-0.129004"
"7","81711870254001","8.47472","-0.0202026","-0.277802","0","0","0","0.0391908","-0.98387","0.17454","-0.124024","-0.178113","-0.976163","0.991505","0.0166093","-0.129004"
"7","81711886519870","8.51303","0.152222","-0.316116","0","0","0","0.0326258","-0.991233","0.128031","-0.121596","-0.131084","-0.983886","0.992043","0.016532","-0.124807"
"7","81711903853855","8.58966","-0.0010376","-0.239487","0","0","0","0.0345724","-0.987548","0.153472","-0.116535","-0.1565","-0.980779","0.992585","0.0160231","-0.120494"
"7","81711920608005","8.85788","-0.307571","-0.0670624","0","0","0","0.0311257","-0.98836","0.148913","-0.111952","-0.151495","-0.982098","0.993226","0.0138974","-0.115364"
"7","81711936873874","9.26021","-0.63327","0.105362","0","0","0","0.0321348","-0.978713","0.202701","-0.104798","-0.204987","-0.973138","0.993974","0.0100291","-0.109154"
"7","81711954177341","9.94991","-0.690735","0.181992","0","0","0","0.0210686","-0.98818","0.151844","-0.100159","-0.1532","-0.983106","0.994748","0.00550401","-0.102203"
"7","81711970962009","10.4863","-0.537476","0.296951","0","0","0","0.0238954","-0.972372","0.232211","-0.0916649","-0.23343","-0.968044","0.995503","0.00184616","-0.0947103"
"7","81711987777195","10.448","-0.499161","0.469376","0","0","0","0.0243173","-0.956168","0.291807","-0.0832285","-0.292816","-0.95254","0.996234","-0.00112344","-0.086701"
"7","81712004561862","10.199","-0.556625","0.622635","0","0","0","0.0214233","-0.946157","0.322998","-0.0752794","-0.323682","-0.943166","0.996932","-0.0041094","-0.0781604"
"7","81712021346530","10.2564","-0.192627","0.6418","0","0","0","0.0142293","-0.959818","0.280262","-0.0691113","-0.280564","-0.957344","0.997507","-0.0057469","-0.0703265"
"7","81712038131198","10.2181","-0.0968323","1.0058","0","0","0","0.0170396","-0.93179","0.362597","-0.0599062","-0.362949","-0.929881","0.998059","-0.00587699","-0.0620046"
"7","81712054915866","9.85411","-0.0202026","0.392746","0","0","0","0.0151843","-0.925966","0.377302","-0.0529711","-0.377561","-0.924468","0.998481","-0.00594873","-0.0547824"
"7","81712071670017","10.3522","0.228867","-0.124527","0","0","0","0.0133733","-0.940377","0.33987","-0.050898","-0.3401","-0.939011","0.998614","-0.00474103","-0.0524116"
"7","81712088454685","11.3868","0.841919","1.04413","0","0","0","0.0123448","-0.955629","0.294314","-0.043295","-0.294572","-0.954648","0.998986","-0.000957378","-0.0450104"
"7","81712105269870","12.0956","1.4933","1.71466","0","0","0","0.0151233","-0.963409","0.267607","-0.0303994","-0.267957","-0.962951","0.999423","0.00642793","-0.0333395"
"7","81712122054538","11.3868","2.01057","1.48476","0","0","0","0.021705","-0.957435","0.287831","-0.015646","-0.288189","-0.957446","0.999642","0.0162779","-0.0212352"
"7","81712138289890","10.5055","1.85732","1.13991","0","0","0","0.0284356","-0.95787","0.285791","-0.00473265","-0.286032","-0.958209","0.999584","0.0258947","-0.0126667"
"7","81712155654392","8.49387","0.49707","0.929169","0","0","0","0.0311907","-0.958098","0.284738","0.00225886","-0.284808","-0.958582","0.999511","0.030542","-0.00671916"
"7","81712172378025","8.5705","-0.958954","0.162842","0","0","0","0.0265275","-0.98272","0.183189","0.000639189","-0.183237","-0.983068","0.999648","0.0261955","-0.00423268"
"7","81712189162693","9.16441","-3.25795","-3.01744","0","0","0","0.0150304","-0.975617","0.218965","-0.00727482","-0.21909","-0.975677","0.999861","0.0130719","-0.0103905"
"7","81712205398044","9.16441","-3.69859","-3.7646","0","0","0","0.000830518","-0.964816","0.262924","-0.0293246","-0.262834","-0.964395","0.99957","-0.00690919","-0.0285111"
"7","81712222762546","10.1798","-3.27711","-4.64589","0","0","0","-0.00603181","-0.935564","0.353107","-0.0578349","-0.352196","-0.934138","0.998308","-0.0260565","-0.0519839"
"7","81712238997898","13.7049","-2.41498","-5.98697","0","0","0","-0.00603181","-0.935564","0.353107","-0.0578349","-0.352196","-0.934138","0.998308","-0.0260565","-0.0519839"
"7","81712256331882","14.9885","-0.250092","-5.81454","0","0","0","-0.0244223","-0.98769","0.154506","-0.109569","-0.150977","-0.982446","0.993679","-0.0409227","-0.104533"
"7","81712273116550","14.3755","2.29796","-4.24356","0","0","0","-0.00461077","-0.980018","0.198855","-0.124733","-0.19674","-0.972489","0.99218","-0.0292876","-0.121333"
"7","81712289870700","12.8045","3.37082","-2.42352","0","0","0","0.00211904","-0.99497","0.100156","-0.128188","-0.0996003","-0.986736","0.991748","-0.0107479","-0.127754"
"7","81712306685886","11.0994","0.880249","-1.59972","0","0","0","0.00828817","-0.996428","0.0840424","-0.128698","-0.0844093","-0.988085","0.991649","-0.00262666","-0.128938"
"7","81712323501071","9.45178","-0.78653","-1.33151","0","0","0","0.0206483","-0.982057","0.187448","-0.128378","-0.18854","-0.973638","0.99151","-0.0039603","-0.129968"
"7","81712340224704","8.18733","-2.2234","-0.852554","0","0","0","0.00748111","-0.987231","0.159118","-0.130298","-0.158728","-0.978687","0.991447","-0.013411","-0.129822"
"7","81712356460056","7.8808","-2.79816","-0.411911","0","0","0","-0.00539229","-0.985687","0.168501","-0.12998","-0.166383","-0.977457","0.991502","-0.0271724","-0.127222"
"7","81712373244724","8.1107","-2.05098","-0.507706","0","0","0","-0.00907358","-0.973372","0.229052","-0.129976","-0.22597","-0.965424","0.991476","-0.0385312","-0.124465"
"7","81712390029392","8.39807","-0.7099","-0.852554","0","0","0","-0.0158012","-0.977332","0.211124","-0.129048","-0.207391","-0.969709","0.991512","-0.0425677","-0.122846"
"7","81712406844577","8.64714","0.362961","-1.40814","0","0","0","-0.00881608","-0.970049","0.242749","-0.129927","-0.23959","-0.962141","0.991484","-0.0400219","-0.123923"
"7","81712423629245","8.60883","0.880249","-1.77214","0","0","0","-0.000627428","-0.967837","0.251576","-0.131694","-0.249305","-0.959429","0.99129","-0.033733","-0.127302"
"7","81712440413913","8.91536","0.956879","-1.58057","0","0","0","0.0161047","-0.947453","0.319489","-0.132161","-0.318744","-0.938582","0.991097","-0.0271083","-0.130349"
"7","81712457168064","9.18356","1.30173","-1.25487","0","0","0","0.0192521","-0.958494","0.284461","-0.131337","-0.284473","-0.949645","0.991151","-0.0190777","-0.131362"
"7","81712473952732","9.27936","1.66573","-1.04413","0","0","0","0.0315762","-0.950977","0.307645","-0.127246","-0.309119","-0.942472","0.991368","-0.00938684","-0.130768"
"7","81712490767917","9.04945","1.99142","-0.833389","0","0","0","0.0426982","-0.948571","0.31367","-0.122068","-0.316558","-0.940686","0.991603","0.00187636","-0.129307"
"7","81712508071384","8.64714","2.10637","-0.546021","0","0","0","0.0550943","-0.942219","0.330437","-0.114813","-0.334723","-0.935296","0.991858","0.013591","-0.12662"
"7","81712524306736","8.30229","1.819","-0.258636","0","0","0","0.0550247","-0.964852","0.256968","-0.112115","-0.2617","-0.958615","0.992171","0.0239377","-0.122574"
"7","81712541091403","8.26398","1.2251","-0.105377","0","0","0","0.064109","-0.95482","0.290189","-0.103402","-0.295578","-0.949706","0.992571","0.0308785","-0.11768"
"7","81712557876071","8.34061","0.841919","0.00956726","0","0","0","0.0649836","-0.958206","0.2786","-0.0978163","-0.283962","-0.953833","0.993081","0.0347319","-0.112181"
"7","81712574691257","8.76208","0.822769","-0.0862122","0","0","0","0.0730604","-0.933973","0.349795","-0.0865308","-0.355346","-0.930721","0.993567","0.0377308","-0.106779"
"7","81712591475925","9.70084","0.841919","0.0670471","0","0","0","0.0693858","-0.950781","0.301994","-0.0837559","-0.307207","-0.94795","0.994068","0.0404805","-0.100949"
"7","81712608230075","10.1032","1.01434","0.335266","0","0","0","0.0679396","-0.959829","0.272235","-0.0781951","-0.277149","-0.95764","0.99462","0.0437742","-0.0938833"
"7","81712625014743","10.2756","1.1293","0.756744","0","0","0","0.0706422","-0.95333","0.293551","-0.0668267","-0.298148","-0.952178","0.995261","0.0476469","-0.0847697"
"7","81712641799411","10.2756","1.07182","1.02496","0","0","0","0.0712775","-0.951845","0.29818","-0.0556029","-0.302267","-0.9516","0.995906","0.0512479","-0.0744702"
"7","81712658614597","10.0648","0.63118","1.29318","0","0","0","0.0711107","-0.938368","0.338243","-0.0415477","-0.341594","-0.938929","0.996603","0.0527147","-0.063278"
"7","81712675368747","9.8158","-0.0393524","1.44644","0","0","0","0.0612242","-0.971036","0.230954","-0.0385339","-0.233515","-0.971589","0.99738","0.0505852","-0.0517146"
"7","81712692702732","9.87326","-0.384201","0.967484","0","0","0","0.0564339","-0.954491","0.292853","-0.0272204","-0.294682","-0.955208","0.998035","0.0459345","-0.0426117"
"7","81712709487400","9.62421","-0.57579","0.66095","0","0","0","0.0527859","-0.866696","0.496035","-0.0109667","-0.497201","-0.867566","0.998546","0.0403554","-0.03575"
"7","81712726272068","10.8887","-0.997269","0.450211","0","0","0","0.0429824","-0.90668","0.419623","-0.0144411","-0.420531","-0.907163","0.998971","0.0329322","-0.031169"
"7","81712743087253","12.4788","-0.63327","1.67635","0","0","0","0.033139","-0.802947","0.595128","-0.000691405","-0.595473","-0.803375","0.999451","0.0262116","-0.0202886"
"7","81712759841403","11.8657","0.113907","0.948334","0","0","0","0.0269674","-0.884681","0.465416","-0.000103814","-0.465588","-0.885001","0.999636","0.0238178","-0.0126475"
"7","81712776656589","10.9078","0.726974","-0.201172","0","0","0","0.0272783","-0.824561","0.565115","0.00533367","-0.565197","-0.824939","0.999614","0.025517","-0.0110197"
"7","81712792861423","11.4634","1.56995","-1.77214","0","0","0","0.0354681","-0.780521","0.624123","0.00536293","-0.624358","-0.78112","0.999356","0.031052","-0.0179589"
"7","81712809676609","13.4559","2.91103","-3.93703","0","0","0","0.0541345","-0.855911","0.514281","-0.00764464","-0.515377","-0.85693","0.998504","0.042458","-0.0344428"
"7","81712826461277","15.3525","3.7923","-6.14024","0","0","0","0.0801503","-0.878232","0.471471","-0.0263532","-0.474694","-0.879756","0.996434","0.058088","-0.0611911"
"7","81712843215427","13.3792","2.64281","-7.63458","0","0","0","0.104907","-0.885983","0.451696","-0.0519612","-0.458465","-0.887192","0.993124","0.0696015","-0.0941327"
"7","81712860000095","10.4863","0.707825","-6.15939","0","0","0","0.114167","-0.916584","0.383197","-0.0851335","-0.393327","-0.915449","0.989807","0.0718909","-0.122937"
"7","81712876784763","8.05322","-1.24632","-2.5768","0","0","0","0.110682","-0.927634","0.356713","-0.103815","-0.367746","-0.924113","0.988419","0.0652507","-0.137005"
"7","81712893599948","8.5705","-1.85939","-1.40814","0","0","0","0.111772","-0.884642","0.452676","-0.0994995","-0.463204","-0.880648","0.98874","0.0533908","-0.139795"
"7","81712910354099","9.8158","-1.57202","-0.910019","0","0","0","0.101952","-0.879694","0.464483","-0.10229","-0.473711","-0.87472","0.989516","0.0416675","-0.13828"
"7","81712927138767","10.2756","-0.269257","-0.948334","0","0","0","0.101952","-0.879694","0.464483","-0.10229","-0.473711","-0.87472","0.989516","0.0416675","-0.13828"
"7","81712943953952","9.8158","1.16762","-1.02498","0","0","0","0.0912425","-0.899759","0.426742","-0.107015","-0.434907","-0.894094","0.990062","0.0359117","-0.135969"
"7","81712960769138","9.20273","2.25964","-1.35066","0","0","0","0.0920272","-0.900796","0.424379","-0.10454","-0.432572","-0.895518","0.990254","0.0380475","-0.133978"
"7","81712978042087","8.39807","2.79607","-1.77214","0","0","0","0.105951","-0.923366","0.369011","-0.104211","-0.379367","-0.919359","0.988895","0.0589519","-0.13642"
"7","81712994307956","8.05322","1.99142","-2.17447","0","0","0","0.100207","-0.968198","0.22924","-0.121323","-0.240571","-0.963019","0.987542","0.0686891","-0.141571"
"7","81713011092624","8.07239","0.841919","-1.98289","0","0","0","0.116285","-0.9393","0.322791","-0.114165","-0.335482","-0.935103","0.986633","0.071887","-0.146246"
"7","81713027846775","8.97282","-0.403366","-2.30858","0","0","0","0.107526","-0.954964","0.276552","-0.126089","-0.289018","-0.948984","0.986174","0.0671704","-0.151487"
"7","81713044631443","10.0457","-0.63327","-2.07867","0","0","0","0.103862","-0.951357","0.290056","-0.130357","-0.302139","-0.944309","0.986012","0.0602673","-0.155397"
"7","81713061416111","10.8312","-0.63327","-1.5614","0","0","0","0.0988443","-0.948253","0.301737","-0.131677","-0.31302","-0.940574","0.986352","0.0532386","-0.155803"
"7","81713078231296","10.6971","-0.690735","-1.00581","0","0","0","0.0939113","-0.943108","0.318947","-0.129658","-0.32922","-0.935309","0.987102","0.0464821","-0.153199"
"7","81713094985446","9.75832","-0.863159","-0.182007","0","0","0","0.0781099","-0.960699","0.266377","-0.130983","-0.274767","-0.952548","0.988303","0.0395126","-0.147297"
"7","81713112319431","9.20273","-0.978119","0.0670471","0","0","0","0.0716065","-0.954516","0.289432","-0.123528","-0.29643","-0.947032","0.989754","0.0320607","-0.139136"
"7","81713128554782","8.14902","-0.882324","0.469376","0","0","0","0.0610989","-0.958392","0.278841","-0.117983","-0.284339","-0.951436","0.991134","0.0252331","-0.130447"
"7","81713145339450","7.99576","-0.269257","0.546005","0","0","0","0.0471266","-0.97625","0.21146","-0.114152","-0.215572","-0.969793","0.992345","0.0215644","-0.1216"
"7","81713162124118","8.68546","0.075592","0.220322","0","0","0","0.057847","-0.940346","0.335265","-0.099956","-0.339595","-0.935246","0.993309","0.0205894","-0.113638"
"7","81713179427585","9.50926","-0.154312","-0.143692","0","0","0","0.0577627","-0.92838","0.367116","-0.0933251","-0.371141","-0.923875","0.993959","0.0191044","-0.108079"
"7","81713196242771","10.2756","-0.460846","-0.411911","0","0","0","0.0446977","-0.958358","0.282048","-0.0952428","-0.285133","-0.953744","0.99445","0.0157671","-0.104022"
"7","81713213027439","10.7162","-0.479996","-0.258636","0","0","0","0.0460772","-0.936626","0.347288","-0.0893364","-0.350128","-0.932432","0.994935","0.0119384","-0.0998077"
"7","81713229812107","10.6779","-0.250092","0.105362","0","0","0","0.0467485","-0.913467","0.404218","-0.0820016","-0.406804","-0.909828","0.995535","0.0093866","-0.0939233"
"7","81713246596775","10.2756","-0.0585175","0.50769","0","0","0","0.0445882","-0.902445","0.428491","-0.0744405","-0.430727","-0.899407","0.996228","0.00820583","-0.0863838"
"7","81713263381443","9.68169","0.0181122","0.871704","0","0","0","0.0380755","-0.916034","0.39929","-0.0677465","-0.401027","-0.913558","0.996976","0.00773366","-0.0773274"
"7","81713280166111","9.29852","0.0372772","1.2357","0","0","0","0.0349582","-0.907634","0.418304","-0.0574307","-0.419693","-0.905847","0.997737","0.00764329","-0.0667978"
"7","81713296950778","9.16441","-0.0393524","1.54224","0","0","0","0.029319","-0.90995","0.413681","-0.0472538","-0.414658","-0.90875","0.998452","0.00709562","-0.055156"
"7","81713313735446","9.45178","-0.269257","1.58055","0","0","0","0.028707","-0.823447","0.566667","-0.0318653","-0.567366","-0.822849","0.99908","0.00556455","-0.0425267"
"7","81713330550632","10.5055","-0.0776672","0.948334","0","0","0","0.0204214","-0.868705","0.494909","-0.0275159","-0.495313","-0.868279","0.999413","0.00411363","-0.0340181"
"7","81713347335300","11.1952","0.976028","1.36981","0","0","0","0.0204084","-0.829513","0.558114","-0.0168095","-0.558436","-0.829377","0.99965","0.00754468","-0.0253405"
"7","81713364089450","11.4059","1.819","2.13614","0","0","0","0.0205996","-0.83654","0.547519","-0.00205254","-0.547669","-0.836693","0.999786","0.0161118","-0.0129988"
"7","81713380904636","11.0228","1.85732","2.04036","0","0","0","0.0222713","-0.85829","0.512682","0.0126933","-0.512525","-0.858579","0.999671","0.0256293","-0.000520024"
"7","81713397658786","10.1032","1.1293","1.10159","0","0","0","0.0264019","-0.915756","0.400867","0.0193189","-0.400465","-0.916109","0.999465","0.0319313","0.00711838"
"7","81713414473972","9.85411","-0.192627","0.680115","0","0","0","0.0247817","-0.924634","0.380049","0.0219578","-0.379571","-0.924902","0.999452","0.0312657","0.0108965"
"7","81713430739841","10.3522","-1.51454","-0.162857","0","0","0","0.0180322","-0.937758","0.346821","0.0183715","-0.346508","-0.937867","0.999669","0.0232835","0.0109797"
"7","81713448043308","11.176","-3.67943","-3.68797","0","0","0","0.00607805","-0.924379","0.381427","0.000216713","-0.381433","-0.924396","0.999982","0.00570119","-0.00211804"
"7","81713464797458","11.4826","-3.02805","-5.58464","0","0","0","0.00537049","-0.842288","0.539","-0.032379","-0.538872","-0.841765","0.999461","-0.0129316","-0.0301665"
"7","81713481612644","13.0344","-1.55286","-7.46216","0","0","0","0.00773433","-0.901374","0.432971","-0.0691786","-0.432429","-0.89901","0.997574","-0.0229991","-0.0657003"
"7","81713498427829","12.9577","1.03351","-6.0636","0","0","0","0.0167435","-0.930506","0.365893","-0.0970557","-0.365728","-0.925647","0.995138","-0.0200134","-0.0964346"
"7","81713515181980","12.3638","2.7386","-3.4006","0","0","0","0.0226575","-0.966752","0.254708","-0.109974","-0.255638","-0.960497","0.993676","-0.00624875","-0.11211"
"7","81713531966648","12.2297","2.62364","-0.910019","0","0","0","0.03402","-0.97331","0.22696","-0.107884","-0.229341","-0.967349","0.993581","0.0084238","-0.112807"
"7","81713548751316","12.2106","0.74614","-0.890869","0","0","0","0.048097","-0.950723","0.306289","-0.0999021","-0.309685","-0.945576","0.993834","0.0148805","-0.109874"
"7","81713565505466","11.4442","-1.20801","-1.63805","0","0","0","0.0359529","-0.972197","0.231388","-0.105193","-0.233933","-0.966545","0.993802","0.0104096","-0.110679"
"7","81713582351169","9.73917","-2.5874","-1.02498","0","0","0","0.0312976","-0.955439","0.293526","-0.106647","-0.295185","-0.949469","0.993804","-0.0015875","-0.111133"
"7","81713599074802","7.86165","-2.24255","-0.660965","0","0","0","0.00704854","-0.938703","0.344654","-0.111635","-0.343246","-0.932588","0.993724","-0.031902","-0.107211"
"7","81713615859470","7.86165","-2.24255","-0.660965","0","0","0","0.00704854","-0.938703","0.344654","-0.111635","-0.343246","-0.932588","0.993724","-0.031902","-0.107211"
"7","81713632125339","7.65091","-0.7099","-0.795074","0","0","0","0.00792752","-0.921082","0.389287","-0.112758","-0.38764","-0.914888","0.993591","-0.0366426","-0.106933"
"7","81713648910007","7.61259","0.535385","-0.967499","0","0","0","0.013851","-0.910148","0.414051","-0.112104","-0.412894","-0.903854","0.9936","-0.0338977","-0.107751"
"7","81713666243991","7.78502","1.16762","-1.15909","0","0","0","0.0184242","-0.919445","0.392786","-0.111044","-0.392304","-0.913108","0.993645","-0.0267933","-0.109327"
"7","81713683028659","8.26398","1.11014","-1.44646","0","0","0","0.0363044","-0.880014","0.473557","-0.107604","-0.474557","-0.873623","0.993531","-0.0192403","-0.111922"
"7","81713699813327","8.85788","1.16762","-1.44646","0","0","0","0.0372266","-0.908029","0.417251","-0.109164","-0.418736","-0.901523","0.993326","-0.0119883","-0.114713"
"7","81713716597995","9.14525","1.5891","-1.27403","0","0","0","0.0533459","-0.876114","0.479144","-0.103597","-0.482094","-0.869973","0.993188","-0.00322848","-0.116481"
"7","81713733382663","8.89619","2.22133","-0.890869","0","0","0","0.0557091","-0.91033","0.410116","-0.1022","-0.413795","-0.904615","0.993203","0.00848146","-0.116088"
"7","81713750167331","8.1107","2.66196","0.220322","0","0","0","0.0697639","-0.949037","0.307347","-0.0891877","-0.312797","-0.945623","0.993569","0.0385588","-0.106464"
"7","81713766921482","8.1107","2.66196","0.220322","0","0","0","0.0697639","-0.949037","0.307347","-0.0891877","-0.312797","-0.945623","0.993569","0.0385588","-0.106464"
"7","81713783156833","8.24481","2.01057","0.277786","0","0","0","0.0835716","-0.924446","0.372043","-0.0739662","-0.378073","-0.922816","0.993753","0.0496026","-0.099974"
"7","81713800490818","8.78125","1.20593","0.239471","0","0","0","0.0840521","-0.937973","0.336367","-0.0692528","-0.342244","-0.937056","0.994052","0.0554671","-0.0937236"
"7","81713816756687","9.35599","0.535385","0.0287323","0","0","0","0.0838765","-0.934524","0.345874","-0.0629153","-0.351371","-0.93412","0.994488","0.0565899","-0.0882677"
"7","81713834060153","9.68169","0.152222","-0.0862122","0","0","0","0.0837233","-0.915936","0.392494","-0.0553616","-0.397544","-0.915911","0.99495","0.0549541","-0.0839914"
"7","81713850844821","9.75832","0.133072","-0.0287476","0","0","0","0.0749527","-0.947082","0.312119","-0.0590899","-0.316668","-0.946694","0.995435","0.0525142","-0.0796981"
"7","81713867629489","10.0648","0.305496","0.392746","0","0","0","0.076751","-0.908668","0.410405","-0.045838","-0.414399","-0.90894","0.995996","0.0509499","-0.0734571"
"7","81713884444675","10.6779","0.61203","1.02496","0","0","0","0.070795","-0.929192","0.362755","-0.0413616","-0.366089","-0.92966","0.996633","0.0508112","-0.0643501"
"7","81713901229343","10.9078","0.61203","1.42729","0","0","0","0.0673321","-0.925614","0.372431","-0.0299375","-0.374984","-0.926548","0.997281","0.0512368","-0.0529591"
"7","81713918044528","10.9461","0.420441","1.50392","0","0","0","0.0637951","-0.897726","0.43591","-0.0149878","-0.437613","-0.899039","0.99785","0.0508209","-0.0413725"
"7","81713934859714","10.812","0.420441","1.02496","0","0","0","0.0589792","-0.903534","0.424439","-0.00786985","-0.425587","-0.904884","0.998228","0.050029","-0.0322114"
"7","81713951583347","9.96906","0.573715","0.680115","0","0","0","0.0561518","-0.825109","0.562176","0.00672358","-0.562739","-0.826607","0.9984","0.0501953","-0.0260511"
"7","81713968368015","10.2948","0.535385","0.69928","0","0","0","0.0548727","-0.914786","0.400194","0.000910666","-0.400751","-0.916186","0.998493","0.0506381","-0.0211573"
"7","81713985152683","11.6358","-0.0393524","1.9254","0","0","0","0.0474909","-0.868809","0.492865","0.014092","-0.49279","-0.870034","0.998772","0.0482641","-0.0111598"
"7","81714001967868","12.2489","-0.441681","2.46184","0","0","0","0.0339448","-0.82481","0.56439","0.0265908","-0.56377","-0.825504","0.99907","0.0430291","0.00279531"
"7","81714018691501","11.0036","-0.384201","1.61887","0","0","0","0.0203822","-0.763309","0.645712","0.034649","-0.644919","-0.763465","0.999192","0.0379344","0.013303"
"7","81714035506687","8.95367","0.171387","0.469376","0","0","0","0.0187113","-0.796783","0.603976","0.0348179","-0.603196","-0.796832","0.999219","0.0359389","0.0164558"
"7","81714052291355","9.54758","1.30173","-1.42729","0","0","0","0.0199625","-0.70593","0.708","0.0356546","-0.707188","-0.706125","0.999165","0.0393395","0.0110524"
"7","81714069045505","11.6933","2.4129","-4.07114","0","0","0","0.0442213","-0.812967","0.580629","0.0216907","-0.580279","-0.814129","0.998786","0.0485961","-0.0080269"
"7","81714085311374","14.567","3.25587","-5.89117","0","0","0","0.071777","-0.875952","0.477029","-0.00340332","-0.478475","-0.878095","0.997415","0.0614035","-0.0373246"
"7","81714102675876","15.7932","1.97226","-7.17479","0","0","0","0.0929462","-0.892186","0.442001","-0.0310476","-0.446304","-0.894343","0.995187","0.0694026","-0.0691825"
"7","81714119430027","12.6321","-0.0585175","-8.40091","0","0","0","0.111485","-0.861876","0.494714","-0.0595505","-0.502716","-0.862398","0.99198","0.066684","-0.10737"
"7","81714135634861","10.2181","-1.47623","-5.66129","0","0","0","0.116376","-0.865074","0.487958","-0.0887045","-0.498386","-0.862405","0.989236","0.0570789","-0.134736"
"7","81714152999362","7.21027","-1.91687","-0.584335","0","0","0","0.112003","-0.861475","0.495294","-0.101837","-0.505757","-0.856644","0.988476","0.0455078","-0.144376"
"7","81714169814548","9.04945","-0.997269","-0.392746","0","0","0","0.111451","-0.799288","0.590523","-0.0912156","-0.599944","-0.794825","0.989575","0.0347194","-0.139772"
"7","81714186019382","9.8158","-0.365051","-1.35066","0","0","0","0.0982391","-0.84235","0.529902","-0.100062","-0.53814","-0.836895","0.99012","0.0291927","-0.137154"
"7","81714203322849","10.8695","1.01434","-2.92165","0","0","0","0.101386","-0.850012","0.516914","-0.105732","-0.525855","-0.843977","0.989213","0.0309135","-0.143188"
"7","81714220199070","11.4442","2.25964","-2.51932","0","0","0","0.109449","-0.85865","0.500741","-0.108538","-0.511079","-0.852653","0.988049","0.038973","-0.149133"
"7","81714236953220","10.5438","3.27502","-2.34689","0","0","0","0.115354","-0.890778","0.439554","-0.112721","-0.451388","-0.885179","0.986908","0.0525623","-0.152479"
"7","81714253737888","8.8004","3.17923","-2.76837","0","0","0","0.131523","-0.888282","0.440065","-0.111713","-0.454374","-0.883779","0.984998","0.0670768","-0.158993"
"7","81714270492038","7.68922","1.76152","-1.77214","0","0","0","0.132038","-0.920308","0.368238","-0.122357","-0.383782","-0.915282","0.983664","0.0757959","-0.16328"
"7","81714287276706","7.44017","0.362961","-1.23572","0","0","0","0.13116","-0.926019","0.353956","-0.124415","-0.369593","-0.920827","0.983523","0.0767384","-0.163687"
"7","81714304061374","8.26398","-0.537476","-1.61888","0","0","0","0.121544","-0.940289","0.317936","-0.131975","-0.332776","-0.933725","0.983773","0.0715289","-0.164541"
"7","81714320846042","9.8158","-0.824844","-1.94456","0","0","0","0.118102","-0.932371","0.341667","-0.133587","-0.355866","-0.92494","0.983975","0.063595","-0.166581"
"7","81714337661228","10.2564","-0.901474","-1.2932","0","0","0","0.1108","-0.930991","0.347821","-0.135233","-0.360844","-0.92277","0.984599","0.0552064","-0.165882"
"7","81714354415378","9.79663","-1.22717","-0.182007","0","0","0","0.100146","-0.931886","0.348654","-0.132984","-0.359808","-0.923501","0.986046","0.0461198","-0.159959"
"7","81714371200046","8.85788","-1.66782","0.795059","0","0","0","0.0781898","-0.952989","0.292743","-0.131848","-0.300947","-0.944482","0.988181","0.0352513","-0.149181"
"7","81714387954196","8.05322","-1.61034","1.15907","0","0","0","0.0693439","-0.939725","0.334826","-0.120239","-0.34106","-0.93232","0.99032","0.0243916","-0.136642"
"7","81714404708347","8.62798","0.669495","0.0670471","0","0","0","0.0594317","-0.918499","0.390932","-0.0923422","-0.395003","-0.914027","0.993952","0.0182227","-0.108292"
"7","81714421523532","8.62798","0.669495","0.0670471","0","0","0","0.0594317","-0.918499","0.390932","-0.0923422","-0.395003","-0.914027","0.993952","0.0182227","-0.108292"
"7","81714438308200","8.62798","0.669495","0.0670471","0","0","0","0.0594317","-0.918499","0.390932","-0.0923422","-0.395003","-0.914027","0.993952","0.0182227","-0.108292"
"7","81714454543552","9.60506","0.63118","-0.316116","0","0","0","0.0628849","-0.905639","0.419362","-0.0849986","-0.423527","-0.901887","0.994395","0.0210699","-0.103611"
"7","81714471908054","11.0228","0.324646","-0.641815","0","0","0","0.0610858","-0.912513","0.404461","-0.0832542","-0.408464","-0.90897","0.994654","0.0218521","-0.100922"
"7","81714488692722","11.4059","0.152222","-0.296951","0","0","0","0.0613983","-0.900761","0.429954","-0.0781591","-0.433783","-0.897621","0.995048","0.0215076","-0.0970362"
"7","81714505507907","11.1569","-0.0393524","0.335266","0","0","0","0.0580176","-0.896625","0.438974","-0.0720557","-0.442329","-0.893954","0.995712","0.0202345","-0.0902697"
"7","81714522262058","10.6588","-0.154312","0.967484","0","0","0","0.0526449","-0.892008","0.448943","-0.0636396","-0.45165","-0.889923","0.996583","0.0182794","-0.0805441"
"7","81714539046726","9.93074","-0.154312","1.17822","0","0","0","0.0451483","-0.900057","0.433427","-0.0554227","-0.435458","-0.898501","0.997442","0.0165441","-0.0695438"
"7","81714555831394","9.01114","-0.59494","1.38898","0","0","0","0.0346142","-0.91843","0.394067","-0.0475478","-0.39537","-0.91729","0.998269","0.0130142","-0.0573548"
"7","81714572616062","9.1261","-0.556625","-0.239487","0","0","0","0.0315877","-0.896542","0.441831","-0.0439606","-0.44287","-0.895508","0.998534","0.00886395","-0.0534017"
"7","81714589431247","10.2181","0.516235","0.201157","0","0","0","0.0331445","-0.868998","0.493705","-0.0396873","-0.494731","-0.86814","0.998662","0.00918027","-0.0508858"
"7","81714606185398","11.655","2.96849","2.17445","0","0","0","0.0365707","-0.876971","0.47915","-0.0245647","-0.480115","-0.876862","0.999029","0.0202973","-0.0391006"
"7","81714622970066","11.7508","3.71567","2.27025","0","0","0","0.0453135","-0.881268","0.470439","-0.00250573","-0.471022","-0.882118","0.99897","0.038793","-0.0235519"
"7","81714639754734","10.2373","2.70029","0.833374","0","0","0","0.0555187","-0.925561","0.374506","0.00613815","-0.374761","-0.927101","0.998439","0.0537702","-0.015125"
"7","81714656508884","9.14525","0.592865","0.814224","0","0","0","0.0578389","-0.93821","0.3412","0.0100731","-0.341206","-0.939935","0.998275","0.0578018","-0.0102843"
"7","81714673293552","9.75832","-1.87856","-0.00958252","0","0","0","0.0487031","-0.973709","0.222527","0.00315242","-0.22264","-0.974896","0.998808","0.048182","-0.00777373"
"7","81714690108737","10.199","-4.12007","-2.34689","0","0","0","0.0293962","-0.966588","0.254646","-0.00962903","-0.255018","-0.966888","0.999521","0.0259708","-0.0168038"
"7","81714706893405","11.0419","-4.92471","-4.95242","0","0","0","0.0137677","-0.915408","0.402293","-0.0367751","-0.402522","-0.914671","0.999229","-0.0022014","-0.039206"
"7","81714723678073","13.1877","-3.98596","-7.38553","0","0","0","0.00178683","-0.936384","0.350972","-0.077822","-0.350039","-0.933497","0.996966","-0.0256454","-0.0734967"
"7","81714740462741","13.5517","-1.20801","-7.74953","0","0","0","0.00614876","-0.93564","0.352901","-0.115093","-0.351225","-0.92919","0.993336","-0.034903","-0.109845"
"7","81714757216892","12.0765","3.02597","-2.76837","0","0","0","0.0181154","-0.950216","0.311066","-0.128793","-0.310743","-0.941728","0.991506","-0.0230034","-0.128011"
"7","81714773482761","11.8274","2.98766","-1.69551","0","0","0","0.00865404","-0.993898","0.109961","-0.131826","-0.11014","-0.985135","0.991235","-0.00597038","-0.131975"
"7","81714790786228","11.0036","-0.211777","-1.8871","0","0","0","0.0250195","-0.985524","0.167677","-0.129754","-0.169512","-0.976949","0.99123","0.00268596","-0.132117"
"7","81714807540378","10.1415","-1.11221","-1.81047","0","0","0","0.0117517","-0.995793","0.0908782","-0.133771","-0.0916331","-0.986767","0.990943","-0.000560676","-0.134285"
"7","81714824325046","8.30229","-2.6832","-1.00581","0","0","0","0.0127065","-0.982754","0.18448","-0.134577","-0.184497","-0.973576","0.990822","-0.0124559","-0.1346"
"7","81714841140232","7.72754","-3.48785","-0.584335","0","0","0","0.00936578","-0.958834","0.283812","-0.135631","-0.28242","-0.949654","0.990715","-0.0295996","-0.132693"
"7","81714857894382","8.22565","-2.9131","-0.948334","0","0","0","-0.00579841","-0.95781","0.287342","-0.138793","-0.283795","-0.948787","0.990304","-0.0453826","-0.131292"
"7","81714874740085","8.4364","-1.22717","-1.25487","0","0","0","-0.0103444","-0.952895","0.303124","-0.141271","-0.298707","-0.943831","0.989917","-0.0525861","-0.131527"
"7","81714891524753","8.83871","0.74614","-1.75299","0","0","0","-0.00127929","-0.940522","0.339731","-0.142546","-0.33609","-0.93098","0.989787","-0.0496182","-0.133637"
"7","81714908309421","9.27936","1.1293","-2.04036","0","0","0","0.0206095","-0.907545","0.419448","-0.142347","-0.417927","-0.897259","0.989602","-0.0412153","-0.1378"
"7","81714925124607","9.54758","1.16762","-2.02121","0","0","0","0.027056","-0.916166","0.399884","-0.143186","-0.399457","-0.905501","0.989326","-0.0327584","-0.14199"
"7","81714941939792","9.52841","1.55078","-1.52309","0","0","0","0.0311361","-0.931028","0.363617","-0.142369","-0.364215","-0.920368","0.989324","-0.0231113","-0.14389"
"7","81714958663425","9.35599","1.95311","-1.17824","0","0","0","0.0396154","-0.936209","0.349204","-0.13837","-0.351252","-0.926","0.989588","-0.0116355","-0.143458"
"7","81714975448093","8.87703","2.33627","-0.890869","0","0","0","0.0623446","-0.902254","0.426675","-0.127336","-0.431203","-0.893224","0.989898","0.00135657","-0.141773"
"7","81714992232761","8.39807","2.79607","-0.641815","0","0","0","0.0706183","-0.915815","0.395342","-0.120936","-0.401268","-0.907942","0.990145","0.0163061","-0.139092"
"7","81715009047946","8.28313","2.75775","-0.450226","0","0","0","0.08764","-0.897114","0.43302","-0.107782","-0.44068","-0.89117","0.990304","0.0314305","-0.135313"
"7","81715025283298","8.51303","2.20216","-0.373596","0","0","0","0.093003","-0.911438","0.400789","-0.101831","-0.40913","-0.906776","0.990445","0.0435202","-0.130863"
"7","81715042586765","8.89619","1.1293","-0.335281","0","0","0","0.0870031","-0.944264","0.317484","-0.103761","-0.325549","-0.939815","0.99079","0.0488243","-0.126302"
"7","81715059371433","8.93451","0.765289","-0.296951","0","0","0","0.0872931","-0.946115","0.311844","-0.0992926","-0.319744","-0.942287","0.991222","0.0512913","-0.121854"
"7","81715076125583","8.91536","0.74614","-0.182007","0","0","0","0.0871632","-0.946931","0.309392","-0.0944771","-0.317032","-0.943697","0.991704","0.0530252","-0.117097"
"7","81715092971286","9.16441","0.74614","0.0670471","0","0","0","0.0926273","-0.922965","0.37357","-0.0822652","-0.380995","-0.92091","0.992297","0.0545696","-0.111218"
"7","81715109755954","9.4901","0.803604","0.277786","0","0","0","0.0904757","-0.927971","0.361501","-0.0762663","-0.36838","-0.926542","0.992974","0.0562592","-0.104102"
"7","81715126540622","9.83495","0.861084","0.450211","0","0","0","0.0883876","-0.93169","0.352337","-0.0690143","-0.3586","-0.930937","0.993692","0.0579669","-0.0959957"
"7","81715143294773","10.0457","0.899399","0.737595","0","0","0","0.0833086","-0.950287","0.300026","-0.0643791","-0.305576","-0.949989","0.994442","0.0598268","-0.0866357"
"7","81715160079441","10.0648","0.707825","1.08244","0","0","0","0.078554","-0.96317","0.257163","-0.057494","-0.261907","-0.963379","0.995251","0.060892","-0.0759504"
"7","81715176894626","10.1032","0.228867","1.25487","0","0","0","0.0743092","-0.96403","0.255193","-0.0469958","-0.259001","-0.964733","0.996127","0.0596955","-0.0645516"
"7","81715193648777","10.4289","-0.307571","0.814224","0","0","0","0.0683536","-0.954112","0.291546","-0.0373142","-0.29447","-0.954932","0.996963","0.0543942","-0.0557299"
"7","81715210433445","10.1415","-0.0010376","0.6418","0","0","0","0.0660068","-0.915812","0.396147","-0.0245597","-0.398384","-0.91689","0.997517","0.0507917","-0.0487881"
"7","81715227218112","11.1952","-0.135147","0.986649","0","0","0","0.0589817","-0.932503","0.356313","-0.0215671","-0.358041","-0.933457","0.998026","0.0473722","-0.0412293"
"7","81715244002780","12.5363","-0.403366","1.73383","0","0","0","0.0499254","-0.937954","0.343147","-0.0135699","-0.344181","-0.938805","0.998661","0.0422137","-0.0299113"
"7","81715260817966","12.5746","-0.211777","2.1553","0","0","0","0.0410389","-0.916634","0.397616","-0.000186054","-0.397959","-0.917403","0.999158","0.0375753","-0.0165023"
"7","81715277572116","10.5246","0.439606","1.63803","0","0","0","0.03527","-0.906166","0.421449","0.0104668","-0.421354","-0.906836","0.999323","0.0363954","-0.00537645"
"7","81715294356784","8.95367","1.05267","0.852539","0","0","0","0.033608","-0.857165","0.513945","0.0209099","-0.51352","-0.857823","0.999216","0.0395762","0.000664806"
"7","81715311141452","8.64714","1.53162","-0.0287476","0","0","0","0.0388177","-0.879312","0.474662","0.0234205","-0.474089","-0.880166","0.998972","0.0452828","0.00219089"
"7","81715327926120","12.2872","3.40913","-4.70337","0","0","0","0.0569102","-0.881447","0.468842","0.01505","-0.468792","-0.88318","0.998266","0.057318","-0.0134133"
"7","81715344741306","15.6016","3.81146","-5.96782","0","0","0","0.0852281","-0.881684","0.46408","-0.0046038","-0.466118","-0.884711","0.996351","0.0732657","-0.0437854"
"7","81715361495456","15.3717","2.10637","-8.80324","0","0","0","0.104164","-0.93238","0.346147","-0.0473098","-0.352292","-0.934694","0.993434","0.0809849","-0.0808067"
"7","81715378249607","11.0036","-0.0010376","-8.24765","0","0","0","0.110635","-0.950802","0.289369","-0.0915836","-0.299671","-0.949636","0.989632","0.0785614","-0.120232"
"7","81715395064792","8.55135","-1.61034","-4.55009","0","0","0","0.113502","-0.935505","0.334585","-0.111695","-0.346641","-0.931324","0.987239","0.0683351","-0.143836"
"7","81715411849460","7.21027","-2.24255","-0.948334","0","0","0","0.119228","-0.873353","0.47227","-0.103745","-0.484018","-0.868886","0.987432","0.0545994","-0.148315"
"7","81715428634128","8.60883","-2.24255","0.0478973","0","0","0","0.097693","-0.899094","0.426716","-0.111089","-0.435939","-0.893094","0.988997","0.0398457","-0.142467"
"7","81715445418796","10.5438","-0.7099","-1.96373","0","0","0","0.092911","-0.886401","0.453497","-0.111297","-0.461859","-0.879943","0.989434","0.0312833","-0.141566"
"7","81715462203464","11.1377","1.09099","-3.68797","0","0","0","0.0958828","-0.894536","0.436592","-0.120231","-0.44581","-0.887017","0.988105","0.0325579","-0.150296"
"7","81715478988132","11.0994","2.98766","-3.05576","0","0","0","0.111368","-0.889133","0.443892","-0.12077","-0.455469","-0.882022","0.986414","0.0446206","-0.158105"
"7","81715495753465","9.68169","3.61987","-2.90248","0","0","0","0.111612","-0.940764","0.320165","-0.135456","-0.333574","-0.932942","0.984477","0.0607592","-0.164663"
"7","81715512568651","8.32144","2.64281","-2.73006","0","0","0","0.120794","-0.951797","0.281943","-0.142759","-0.297727","-0.943917","0.982359","0.0737697","-0.171841"
"7","81715529322801","7.91913","0.803604","-1.69551","0","0","0","0.123803","-0.95482","0.270169","-0.146133","-0.286838","-0.946768","0.981488","0.0777319","-0.175043"
"7","81715546107469","8.37892","-0.882324","-1.2932","0","0","0","0.111026","-0.967775","0.226018","-0.152728","-0.241337","-0.958348","0.982012","0.0718827","-0.174601"
"7","81715562892137","9.18356","-1.53371","-1.52309","0","0","0","0.0966009","-0.973611","0.206763","-0.156998","-0.220039","-0.962774","0.982863","0.0605435","-0.174111"
"7","81715579676805","9.68169","-1.28465","-1.21655","0","0","0","0.0903692","-0.967544","0.235992","-0.155045","-0.247741","-0.95634","0.983765","0.0498341","-0.172401"
"7","81715596461473","9.85411","-1.15054","-0.641815","0","0","0","0.0850574","-0.959987","0.266814","-0.150061","-0.277073","-0.949059","0.985011","0.0406861","-0.167624"
"7","81715613246141","9.0303","-1.3996","0.6418","0","0","0","0.0742502","-0.95952","0.271678","-0.142926","-0.279857","-0.949343","0.986944","0.0316591","-0.157919"
"7","81715630030809","8.39807","-1.61034","0.833374","0","0","0","0.0616561","-0.958854","0.277124","-0.134267","-0.283097","-0.949646","0.989025","0.0213428","-0.146197"
"7","81715646784959","7.80417","-1.16969","0.6418","0","0","0","0.0476308","-0.965393","0.256413","-0.127913","-0.260486","-0.956967","0.990641","0.0127825","-0.135894"
"7","81715663050828","7.7467","-0.288422","0.373581","0","0","0","0.0444314","-0.959738","0.277361","-0.119791","-0.280751","-0.952276","0.991804","0.00908554","-0.127442"
"7","81715680323777","8.14902","0.458755","0.0478973","0","0","0","0.0380356","-0.972475","0.229881","-0.11524","-0.232782","-0.965677","0.992609","0.0102386","-0.120922"
"7","81715697138963","8.83871","0.68866","-0.258636","0","0","0","0.0457017","-0.959257","0.278815","-0.107566","-0.282209","-0.953303","0.993147","0.0135766","-0.116081"
"7","81715713923631","9.35599","0.382126","-0.258636","0","0","0","0.0347804","-0.984582","0.17143","-0.107061","-0.174217","-0.97887","0.993644","0.015692","-0.11147"
"7","81715730708299","9.83495","-0.211777","-0.143692","0","0","0","0.0419122","-0.965077","0.258593","-0.0987798","-0.261555","-0.960121","0.994226","0.014697","-0.106292"
"7","81715747492967","10.6971","-0.59494","-0.220322","0","0","0","0.038145","-0.961334","0.272732","-0.0941189","-0.275174","-0.956776","0.99483","0.010827","-0.100976"
"7","81715764247117","11.4826","-0.537476","0.00956726","0","0","0","0.03451","-0.955318","0.293558","-0.0886381","-0.295501","-0.951222","0.995466","0.00680624","-0.0948753"
"7","81715781031785","11.2143","-0.460846","0.162842","0","0","0","0.0240082","-0.973073","0.229244","-0.0849926","-0.230466","-0.969361","0.996092","0.00378866","-0.088237"
"7","81715797846971","11.0036","-0.479996","0.277786","0","0","0","0.0335016","-0.915746","0.400359","-0.0743981","-0.401757","-0.912719","0.996666","0.000791559","-0.0815893"
"7","81715814601121","10.4289","0.0564423","0.756744","0","0","0","0.0254009","-0.938966","0.34307","-0.0691922","-0.344009","-0.936413","0.99728","4.79683e-05","-0.0737073"
"7","81715831416307","9.64337","0.420441","1.12076","0","0","0","0.0231028","-0.943268","0.331229","-0.0594006","-0.332027","-0.941398","0.997967","0.00207368","-0.0637014"
"7","81715848200975","8.97282","0.592865","0.680115","0","0","0","0.023103","-0.942563","0.333229","-0.051009","-0.333995","-0.941194","0.998431","0.00474673","-0.0557954"
"7","81715864955125","9.4901","0.861084","0.890854","0","0","0","0.0204487","-0.970787","0.239072","-0.0450358","-0.239773","-0.969784","0.998776","0.00906404","-0.0486232"
"7","81715881800828","10.812","1.1293","2.11699","0","0","0","0.0277602","-0.913235","0.406486","-0.0268364","-0.407177","-0.912955","0.999254","0.0144352","-0.0358112"
"7","81715898585496","11.5975","1.55078","2.6151","0","0","0","0.0265192","-0.949215","0.313508","-0.0114351","-0.313886","-0.949392","0.999583","0.0215921","-0.0191784"
"7","81715915370164","10.7737","0.765289","1.59972","0","0","0","0.0270969","-0.93286","0.359218","0.00229072","-0.359291","-0.933223","0.99963","0.0261103","-0.00759874"
"7","81715932246385","9.91159","-0.671585","1.08244","0","0","0","0.0228122","-0.96462","0.262656","0.00529596","-0.262604","-0.964889","0.999726","0.0234022","-0.000881985"
"7","81715949000535","10.2948","-2.30003","0.56517","0","0","0","0.0106062","-0.9646","0.263502","0.00661955","-0.263444","-0.964652","0.999922","0.0119755","0.00359109"
"7","81715965724168","11.176","-3.67943","-1.86794","0","0","0","-0.00546193","-0.930899","0.365237","-0.00534057","-0.36521","-0.93091","0.999971","-0.00703514","-0.00297678"
"7","81715982508836","11.9998","-4.27335","-4.70337","0","0","0","-0.0182838","-0.924595","0.380511","-0.0332759","-0.379801","-0.924469","0.999279","-0.0295647","-0.0238226"
"7","81715999262986","12.9003","-3.14301","-6.88741","0","0","0","-0.0307832","-0.96666","0.254208","-0.0665846","-0.25178","-0.965491","0.997306","-0.0466472","-0.0566141"
"7","81716016108690","12.498","-0.882324","-7.05983","0","0","0","-0.0249745","-0.960652","0.276628","-0.101378","-0.272855","-0.956699","0.994534","-0.051937","-0.0905744"
"7","81716032862840","11.1569","1.97226","-5.62297","0","0","0","-0.0178874","-0.978825","0.203917","-0.123105","-0.200242","-0.971982","0.992232","-0.0424894","-0.116916"
"7","81716049647508","10.0265","3.92641","-2.71091","0","0","0","-0.000619113","-0.986693","0.162595","-0.132189","-0.161087","-0.978048","0.991224","-0.0220987","-0.13033"
"7","81716066432176","10.3522","2.22133","-1.67636","0","0","0","0.0115441","-0.991346","0.130766","-0.133016","-0.131135","-0.9824","0.991047","-0.0060531","-0.133379"
"7","81716083186326","10.5821","-0.269257","-1.36983","0","0","0","0.0205857","-0.983929","0.177372","-0.132108","-0.178531","-0.975025","0.991022","-0.00336055","-0.13366"
"7","81716100032029","9.96906","-2.35751","-1.00581","0","0","0","0.00820504","-0.987549","0.1571","-0.132882","-0.156789","-0.978652","0.991098","-0.0128459","-0.132513"
"7","81716116786180","9.3943","-3.25795","-0.68013","0","0","0","0.00106473","-0.975071","0.221889","-0.132966","-0.220057","-0.966382","0.99112","-0.0284747","-0.129886"
"7","81716133570848","9.33684","-2.66405","-0.75676","0","0","0","0.00252448","-0.9422","0.335042","-0.134235","-0.33233","-0.933562","0.990946","-0.0426176","-0.127315"
"7","81716150355516","9.29852","-1.18886","-0.68013","0","0","0","-0.0078865","-0.950148","0.3117","-0.133922","-0.307898","-0.941947","0.990961","-0.0491721","-0.124817"
"7","81716167140184","9.24104","0.133072","-0.69928","0","0","0","-0.0115441","-0.959089","0.282868","-0.130715","-0.279012","-0.951349","0.991353","-0.0479575","-0.122146"
"7","81716183924852","9.14525","0.74614","-1.42729","0","0","0","0.00500337","-0.930808","0.365474","-0.128069","-0.363065","-0.92292","0.991753","-0.0421881","-0.121024"
"7","81716200129686","8.91536","0.765289","-1.44646","0","0","0","-0.000672022","-0.961098","0.276207","-0.127939","-0.273855","-0.953224","0.991782","-0.0359782","-0.122778"
"7","81716216944871","8.4364","0.880249","-1.42729","0","0","0","0.00588178","-0.961545","0.274583","-0.128422","-0.273041","-0.953392","0.991702","-0.029655","-0.12509"
"7","81716234278856","8.2065","1.1293","-1.27403","0","0","0","0.0185181","-0.949324","0.313755","-0.127543","-0.313487","-0.940988","0.99166","-0.0225919","-0.126885"
"7","81716251063524","8.22565","1.64658","-0.871704","0","0","0","0.0319739","-0.93707","0.347674","-0.123472","-0.348891","-0.928994","0.991833","-0.0132245","-0.126857"
"7","81716267848192","8.39807","2.183","-0.354431","0","0","0","0.0434727","-0.933207","0.356701","-0.115977","-0.359338","-0.925973","0.9923","-0.00111445","-0.123852"
"7","81716284632860","8.53218","2.4129","0.124527","0","0","0","0.0395708","-0.97224","0.230615","-0.111832","-0.233655","-0.965867","0.992939","0.0124301","-0.117974"
"7","81716301417527","8.37892","2.35542","0.277786","0","0","0","0.0553199","-0.959789","0.275219","-0.0993558","-0.279564","-0.954972","0.993513","0.0254844","-0.110826"
"7","81716318202195","8.2065","2.06805","0.469376","0","0","0","0.0647444","-0.956632","0.284014","-0.0880921","-0.288979","-0.953274","0.994006","0.0366997","-0.102981"
"7","81716334986863","8.18733","1.55078","0.66095","0","0","0","0.0718259","-0.950904","0.301035","-0.0763013","-0.306168","-0.948915","0.994494","0.0451874","-0.0945461"
"7","81716351802049","8.47472","1.09099","0.58432","0","0","0","0.0610511","-0.989834","0.128456","-0.079072","-0.133088","-0.987945","0.994998","0.0501578","-0.0863934"
"7","81716368556199","8.83871","0.726974","0.411896","0","0","0","0.0727454","-0.957508","0.279083","-0.0614637","-0.283596","-0.956972","0.995455","0.0524619","-0.0794823"
"7","81716385340867","9.35599","0.477921","0.431061","0","0","0","0.0669049","-0.976038","0.207059","-0.0603433","-0.211102","-0.9756","0.995933","0.0527778","-0.0730212"
"7","81716402125535","9.85411","0.55455","0.680115","0","0","0","0.0642419","-0.980244","0.187066","-0.0543855","-0.190614","-0.980157","0.996451","0.0527935","-0.0655565"
"7","81716418910203","10.5055","0.650345","0.948334","0","0","0","0.0645862","-0.972945","0.221827","-0.0431328","-0.224805","-0.973449","0.996979","0.0533034","-0.0564851"
"7","81716435694871","11.0802","0.477921","1.08244","0","0","0","0.063512","-0.963432","0.260317","-0.0313717","-0.262642","-0.964383","0.997488","0.0530833","-0.0469054"
"7","81716452479539","11.4826","0.458755","1.27402","0","0","0","0.0576419","-0.983541","0.171246","-0.0271702","-0.173014","-0.984545","0.997968","0.0520982","-0.0366958"
"7","81716469233690","11.5209","0.63118","1.46561","0","0","0","0.0559546","-0.980051","0.190709","-0.0153753","-0.191831","-0.981307","0.998315","0.0519764","-0.0258024"
"7","81716486048875","10.199","0.976028","1.36981","0","0","0","0.0567005","-0.964729","0.257067","-0.00181893","-0.257581","-0.966255","0.99839","0.0543195","-0.0163597"
"7","81716502833543","11.1377","0.209702","2.07867","0","0","0","0.0525617","-0.944035","0.325632","0.0123126","-0.325445","-0.945481","0.998542","0.0537055","-0.00548239"
"7","81716519648729","12.4788","-0.72905","2.845","0","0","0","0.0415256","-0.94475","0.32515","0.0247546","-0.324358","-0.94561","0.998831","0.047316","0.00991769"
"7","81716536433397","12.2106","-0.844009","1.69551","0","0","0","0.0327481","-0.966238","0.255562","0.0301574","-0.254628","-0.966569","0.999009","0.0393603","0.0208006"
"7","81716553218065","11.8466","-0.0968323","-0.75676","0","0","0","0.0233757","-0.906372","0.421833","0.0321486","-0.421049","-0.906468","0.99921","0.0347507","0.0192962"
"7","81716570002733","13.4559","1.51247","-3.03659","0","0","0","0.032639","-0.916063","0.399705","0.019578","-0.399255","-0.916631","0.999275","0.0377433","0.0049034"
"7","81716586756883","15.2376","3.35165","-4.51178","0","0","0","0.0528322","-0.92488","0.376571","0.00271324","-0.376963","-0.926224","0.9986","0.0499562","-0.0174064"
"7","81716603602586","13.5708","2.98766","-6.81078","0","0","0","0.075204","-0.936842","0.341573","-0.0224693","-0.344048","-0.938683","0.996915","0.0629178","-0.0469239"
"7","81716620356736","8.4364","0.63118","-5.50801","0","0","0","0.0885002","-0.943601","0.319036","-0.0512689","-0.324184","-0.944604","0.994756","0.0672409","-0.0770677"
"7","81716637141404","7.07616","-1.05475","-2.73006","0","0","0","0.0908207","-0.928211","0.360798","-0.0637141","-0.366969","-0.928049","0.993827","0.0612981","-0.0924685"
"7","81716653895555","7.22942","-1.97435","-0.890869","0","0","0","0.0825007","-0.923099","0.375609","-0.0700571","-0.381333","-0.921779","0.994126","0.0497334","-0.0961298"
"7","81716670680223","9.60506","-2.08929","-0.469391","0","0","0","0.0707876","-0.914386","0.398607","-0.0722392","-0.403259","-0.91223","0.994872","0.0357795","-0.0946003"
"7","81716687495408","11.4059","-0.78653","-1.58057","0","0","0","0.0698371","-0.876243","0.476782","-0.0708809","-0.4811","-0.873796","0.995037","0.0272287","-0.0957075"
"7","81716704249559","11.7891","1.14845","-2.28943","0","0","0","0.0643117","-0.926487","0.370791","-0.0832854","-0.375247","-0.923175","0.994448","0.0284895","-0.101296"
"7","81716721034227","10.9461","2.93018","-1.40814","0","0","0","0.0762797","-0.924097","0.374469","-0.0814268","-0.380082","-0.921362","0.993756","0.0397894","-0.104239"
"7","81716737818895","9.62421","3.56241","-1.48477","0","0","0","0.0863147","-0.947423","0.308124","-0.0831032","-0.315047","-0.945431","0.992796","0.0559986","-0.105927"
"7","81716754603563","7.59343","0.228867","-0.986664","0","0","0","0.100901","-0.946099","0.307758","-0.0839539","-0.31633","-0.944927","0.991348","0.069507","-0.111347"
"7","81716771388231","7.59343","0.228867","-0.986664","0","0","0","0.100901","-0.946099","0.307758","-0.0839539","-0.31633","-0.944927","0.991348","0.069507","-0.111347"
"7","81716788142381","7.72754","-0.518311","-1.21655","0","0","0","0.093373","-0.957864","0.271622","-0.090661","-0.27986","-0.95575","0.991495","0.0646158","-0.112972"
"7","81716804408250","8.49387","-0.211777","-1.8871","0","0","0","0.0924983","-0.949715","0.299141","-0.093551","-0.307389","-0.946974","0.991308","0.0596086","-0.11728"
"7","81716821681199","9.31767","0.401291","-1.86794","0","0","0","0.0797922","-0.980001","0.182292","-0.10928","-0.190373","-0.97561","0.990803","0.0579252","-0.122285"
"7","81716838465867","9.8158","0.535385","-1.35066","0","0","0","0.080408","-0.979282","0.185851","-0.110905","-0.194086","-0.974695","0.990573","0.0577615","-0.124213"
"7","81716855311570","9.73917","-0.115982","-0.411911","0","0","0","0.073962","-0.984919","0.15641","-0.110892","-0.163989","-0.980209","0.991076","0.0551536","-0.121349"
"7","81716872065721","9.20273","-1.18886","0.52684","0","0","0","0.0652158","-0.985115","0.159047","-0.104336","-0.165245","-0.980718","0.992402","0.047364","-0.113559"
"7","81716888850389","8.60883","-1.95518","1.21655","0","0","0","0.0559194","-0.976124","0.209892","-0.0924603","-0.21438","-0.972364","0.994145","0.0349674","-0.102241"
"7","81716905665574","8.09155","-1.68697","1.52307","0","0","0","0.0465074","-0.961084","0.272312","-0.0793649","-0.2753","-0.958077","0.99576","0.0229456","-0.0890798"
"7","81716922450242","8.22565","-0.269257","0.948334","0","0","0","0.0386179","-0.965035","0.259261","-0.0709834","-0.261448","-0.962604","0.99673","0.0187705","-0.078598"
"7","81716939356981","9.29852","0.228867","0.296951","0","0","0","0.0345812","-0.972003","0.232409","-0.0655948","-0.234254","-0.96996","0.997247","0.0182975","-0.0718591"
"7","81716956019578","10.3714","0.477921","-0.277802","0","0","0","0.0377389","-0.961028","0.273863","-0.0606134","-0.275755","-0.959315","0.997448","0.0196037","-0.0686579"
"7","81716972773729","11.0228","0.516235","-0.296951","0","0","0","0.0441767","-0.930119","0.364591","-0.0540368","-0.366638","-0.928793","0.997561","0.0213296","-0.0664575"
"7","81716989588914","10.9461","0.343811","0.201157","0","0","0","0.0376326","-0.96556","0.257446","-0.0542973","-0.259224","-0.96429","0.997815","0.0223101","-0.0621826"
"7","81717006373582","10.3522","-0.0968323","0.929169","0","0","0","0.035334","-0.961195","0.273598","-0.046221","-0.275048","-0.960319","0.998306","0.021286","-0.0541459"
"7","81717023188768","9.77748","-0.920639","1.59972","0","0","0","0.0279596","-0.955763","0.292808","-0.0364707","-0.293703","-0.955201","0.998944","0.0160281","-0.0430692"
"7","81717039942918","9.45178","-1.22717","1.84877","0","0","0","0.0170621","-0.958307","0.285232","-0.0269603","-0.28561","-0.957967","0.999491","0.00865503","-0.0307093"
"7","81717056727586","9.16441","-1.38043","1.44644","0","0","0","0.00738846","-0.93296","0.359905","-0.0176338","-0.35998","-0.932793","0.999817","0.000545404","-0.0191113"
"7","81717073512254","9.87326","-0.422516","1.3315","0","0","0","0.000940208","-0.916843","0.399247","-0.0114707","-0.399231","-0.916779","0.999934","-0.00371768","-0.0108922"
"7","81717090266404","10.9461","1.1293","2.23193","0","0","0","2.90908e-05","-0.900196","0.435485","0.000572583","-0.435485","-0.900196","1","0.000275539","0.000502768"
"7","81717107081590","11.4826","2.64281","2.86417","0","0","0","0.00679526","-0.941074","0.338133","0.0191546","-0.337957","-0.940967","0.999793","0.0128709","0.0157294"
"7","81717123866258","11.0611","3.16008","2.1553","0","0","0","0.0134595","-0.892925","0.450005","0.0384833","-0.44925","-0.892577","0.999169","0.0293313","0.028316"
"7","81717140650926","9.62421","2.25964","0.833374","0","0","0","0.0289896","-0.943721","0.329468","0.0448248","-0.328048","-0.943597","0.998574","0.0421229","0.0327922"
"7","81717157435594","9.10693","0.49707","0.66095","0","0","0","0.0310226","-0.940883","0.337307","0.0484779","-0.335656","-0.940736","0.998342","0.045536","0.0351991"
"7","81717174189744","9.73917","-1.15054","-0.335281","0","0","0","0.0274416","-0.953201","0.30109","0.0436839","-0.299772","-0.95301","0.998668","0.0393049","0.0334133"
"7","81717191035447","10.6013","-3.37289","-2.40437","0","0","0","0.0170791","-0.97875","0.204344","0.0257868","-0.203875","-0.978657","0.999522","0.021984","0.0217568"
"7","81717207789598","13.0535","-4.65651","-6.48509","0","0","0","0.000108458","-0.925925","0.377709","-0.0116593","-0.377684","-0.925861","0.999932","-0.00430339","-0.0108366"
"7","81717224574266","15.6399","-2.85562","-9.37799","0","0","0","-0.00600224","-0.957075","0.289778","-0.0611131","-0.28889","-0.95541","0.998113","-0.0234438","-0.0567559"
"7","81717241358934","14.2222","0.765289","-8.09438","0","0","0","0.00143458","-0.970999","0.239078","-0.100718","-0.238003","-0.966028","0.994914","-0.0226937","-0.098139"
"7","81717258143602","11.9424","2.98766","-3.57303","0","0","0","0.00682846","-0.991468","0.130171","-0.11735","-0.130069","-0.984536","0.993067","-0.00855274","-0.117237"
"7","81717274958787","11.0419","3.04514","-0.431061","0","0","0","0.0223609","-0.992722","0.118335","-0.114281","-0.120127","-0.986159","0.993197","0.0085279","-0.116136"
"7","81717291743455","11.3868","0.74614","-0.775909","0","0","0","0.0307779","-0.990308","0.135433","-0.109017","-0.138015","-0.984412","0.993563","0.0155336","-0.112208"
"7","81717308497606","10.448","-1.41875","-1.46562","0","0","0","0.0228398","-0.993647","0.110201","-0.111249","-0.112071","-0.987453","0.99353","0.0102935","-0.113102"
"7","81717325282274","9.41347","-3.18132","-0.373596","0","0","0","0.0115789","-0.990173","0.139369","-0.110405","-0.139792","-0.984007","0.993819","-0.00399322","-0.110938"
"7","81717342066942","9.31767","-4.25418","-0.967499","0","0","0","0.00401161","-0.96625","0.257577","-0.111296","-0.25641","-0.960139","0.993779","-0.0248156","-0.108568"
"7","81717358851610","8.85788","-2.45331","-1.12076","0","0","0","-0.00848233","-0.96255","0.27097","-0.116241","-0.268193","-0.956326","0.993185","-0.0396098","-0.109613"
"7","81717375636277","8.16818","-0.59494","-1.33151","0","0","0","-0.00688692","-0.950421","0.310889","-0.119254","-0.307897","-0.943916","0.99284","-0.0435755","-0.111221"
"7","81717392420945","7.8808","0.61203","-1.94456","0","0","0","0.0053285","-0.930324","0.3667","-0.122708","-0.364542","-0.923066","0.992429","-0.0400784","-0.1161"
"7","81717409205613","7.72754","0.976028","-2.07867","0","0","0","0.00767874","-0.947808","0.318749","-0.126718","-0.317111","-0.939885","0.991909","-0.0331741","-0.122539"
"7","81717425990281","8.18733","0.976028","-1.90625","0","0","0","0.0314887","-0.902238","0.430088","-0.126975","-0.430426","-0.89365","0.991406","-0.0264706","-0.128115"
"7","81717442805467","8.58966","1.41667","-1.5614","0","0","0","0.0315252","-0.929507","0.367456","-0.128478","-0.368357","-0.920764","0.991211","-0.0181826","-0.131033"
"7","81717459559617","8.55135","2.14468","-1.38898","0","0","0","0.0534621","-0.894802","0.443251","-0.121564","-0.446416","-0.88653","0.991143","-0.00648759","-0.132642"
"7","81717476344285","8.2065","2.89186","-1.13992","0","0","0","0.059882","-0.921528","0.383666","-0.119206","-0.388207","-0.91383","0.991062","0.00898647","-0.133099"
"7","81717493128953","7.7467","2.98766","-0.411911","0","0","0","0.0795121","-0.902141","0.424051","-0.106445","-0.430649","-0.89622","0.991134","0.0261225","-0.13027"
"7","81717509913621","7.7467","2.22133","-0.277802","0","0","0","0.0742799","-0.95529","0.286187","-0.109633","-0.293063","-0.949787","0.991193","0.0391746","-0.1265"
"7","81717526728807","7.99576","1.41667","-0.411911","0","0","0","0.0882429","-0.930385","0.355804","-0.0978378","-0.363566","-0.926417","0.991283","0.0469386","-0.123109"
"7","81717543482957","8.45555","0.918564","-0.488541","0","0","0","0.084339","-0.952037","0.294131","-0.0993564","-0.301747","-0.948197","0.991471","0.0507462","-0.12004"
"7","81717560267625","9.01114","0.784454","-0.450226","0","0","0","0.0863714","-0.948686","0.304195","-0.0946974","-0.311771","-0.945427","0.991752","0.0528514","-0.116766"
"7","81717577052293","9.62421","0.861084","-0.354431","0","0","0","0.0824005","-0.962974","0.256692","-0.0942774","-0.263945","-0.959919","0.99213","0.0548976","-0.112536"
"7","81717593836961","10.2181","0.937714","-0.182007","0","0","0","0.0887674","-0.94345","0.319409","-0.0831136","-0.326572","-0.941511","0.992579","0.0570282","-0.107403"
"7","81717610652147","10.7545","0.918564","0.201157","0","0","0","0.0907991","-0.932055","0.350756","-0.0727348","-0.357477","-0.931085","0.993209","0.0590295","-0.100251"
"7","81717627406297","10.812","0.439606","1.25487","0","0","0","0.0870416","-0.931148","0.3541","-0.061923","-0.359819","-0.930965","0.994278","0.0591058","-0.0889787"
