"id","time","accX","accY","accZ","gyroX","gyroY","gyroZ","rot1","rot2","rot3","rot4","rot5","rot6","rot7","rot8","rot9"
"1","384189804168","9.91159","0.784454","-2.74922","0","0","0","0.0872462","-0.992623","0.0841898","-0.267406","-0.104746","-0.957874","0.959626","0.061058","-0.274572"
"1","384199508758","9.91159","0.784454","-2.74922","0","0","0","0.0872462","-0.992623","0.0841898","-0.267406","-0.104746","-0.957874","0.959626","0.061058","-0.274572"
"1","384208694549","9.91159","0.784454","-2.74922","0","0","0","0.0872462","-0.992623","0.0841898","-0.267406","-0.104746","-0.957874","0.959626","0.061058","-0.274572"
"1","384224624725","9.85411","0.784454","-2.74922","0","0","0","0.0839409","-0.994926","0.0554635","-0.26779","-0.0761356","-0.960464","0.959814","0.0657696","-0.272822"
"1","384241378875","9.79663","0.803604","-2.65343","0","0","0","0.0839409","-0.994926","0.0554635","-0.26779","-0.0761356","-0.960464","0.959814","0.0657696","-0.272822"
"1","384258163543","9.79663","0.74614","-2.61511","0","0","0","0.0986406","-0.990697","0.0937539","-0.262649","-0.116792","-0.957797","0.959836","0.0698533","-0.271726"
"1","384274948211","9.83495","0.669495","-2.5768","0","0","0","0.0985943","-0.99135","0.0866313","-0.26149","-0.109806","-0.95894","0.960157","0.0718928","-0.270055"
"1","384291702362","9.85411","0.61203","-2.51932","0","0","0","0.102395","-0.989407","0.102907","-0.258459","-0.12636","-0.957722","0.96058","0.0714683","-0.268659"
"1","384308548065","9.73917","0.535385","-2.42352","0","0","0","0.107228","-0.98686","0.120868","-0.256491","-0.144911","-0.955622","0.96058","0.0714683","-0.268659"
"1","384325332733","9.73917","0.458755","-2.34689","0","0","0","0.102444","-0.989059","0.106149","-0.257068","-0.129409","-0.957689","0.960948","0.0708217","-0.267513"
"1","384342086883","9.77748","0.516235","-2.38521","0","0","0","0.0858658","-0.995089","0.0492361","-0.26128","-0.0701796","-0.962708","0.961436","0.0697993","-0.266023"
"1","384358810516","9.75832","0.573715","-2.46185","0","0","0","0.102762","-0.987672","0.118086","-0.252864","-0.140753","-0.957209","0.962029","0.0685053","-0.264211"
"1","384375656219","9.70084","0.669495","-2.44269","0","0","0","0.085902","-0.994573","0.0586929","-0.257291","-0.0790576","-0.963095","0.962508","0.0676306","-0.262686"
"1","384392440887","9.72","0.726974","-2.38521","0","0","0","0.0932566","-0.991646","0.089115","-0.253418","-0.110198","-0.96106","0.962851","0.0670418","-0.261578"
"1","384409256072","9.75832","0.707825","-2.36606","0","0","0","0.0920834","-0.992107","0.0851118","-0.252797","-0.105967","-0.961699","0.963127","0.0670405","-0.26056"
"1","384426040740","9.83495","0.650345","-2.34689","0","0","0","0.110579","-0.981524","0.156151","-0.244127","-0.179126","-0.953056","0.963418","0.0672675","-0.259424"
"1","384442825408","9.89243","0.63118","-2.44269","0","0","0","0.104985","-0.985003","0.13692","-0.243985","-0.158985","-0.956658","0.96408","0.0670282","-0.257017"
"1","384459610076","9.96906","0.650345","-2.55763","0","0","0","0.104804","-0.984901","0.137793","-0.243171","-0.159729","-0.956742","0.964305","0.0667635","-0.256239"
"1","384477401824","9.98822","0.707825","-2.63428","0","0","0","0.116457","-0.975888","0.18461","-0.237397","-0.207838","-0.948918","0.964407","0.0666827","-0.255877"
"1","384493179412","9.83495","0.68866","-2.69174","0","0","0","0.103939","-0.985449","0.134488","-0.243219","-0.156299","-0.957295","0.964386","0.0667899","-0.255926"
"1","384509964080","9.75832","0.650345","-2.67259","0","0","0","0.105345","-0.984534","0.139981","-0.2429","-0.161976","-0.956433","0.964314","0.0667544","-0.256207"
"1","384526718231","9.75832","0.669495","-2.61511","0","0","0","0.104231","-0.985209","0.136013","-0.243575","-0.15788","-0.956946","0.964265","0.0666139","-0.256428"
"1","384543624969","9.77748","0.650345","-2.5768","0","0","0","0.104496","-0.985009","0.137249","-0.243661","-0.159156","-0.956712","0.964215","0.06653","-0.25664"
"1","384560562225","9.83495","0.592865","-2.55763","0","0","0","0.0986458","-0.98839","0.115561","-0.246086","-0.13675","-0.959553","0.964215","0.0662179","-0.256718"
"1","384577133270","9.89243","0.61203","-2.65343","0","0","0","0.112013","-0.979054","0.170016","-0.240083","-0.192688","-0.951437","0.964268","0.0657557","-0.256638"
"1","384593795867","9.93074","0.63118","-2.61511","0","0","0","0.0995547","-0.987463","0.122501","-0.245585","-0.143688","-0.958667","0.964249","0.0653554","-0.256811"
"1","384610672088","9.8158","0.669495","-2.59595","0","0","0","0.111816","-0.978816","0.171511","-0.240136","-0.194093","-0.951137","0.964278","0.0651665","-0.256752"
"1","384627639862","9.68169","0.68866","-2.5768","0","0","0","0.0945049","-0.990132","0.103479","-0.247536","-0.124051","-0.960904","0.964259","0.0651955","-0.256816"
"1","384644241424","9.56674","0.68866","-2.50017","0","0","0","0.109637","-0.980642","0.162238","-0.241132","-0.184586","-0.952777","0.96428","0.0653387","-0.256702"
"1","384662033172","9.64337","0.68866","-2.50017","0","0","0","0.107203","-0.98251","0.152255","-0.241824","-0.174306","-0.954536","0.96438","0.0655106","-0.256281"
"1","384677902313","9.73917","0.669495","-2.40437","0","0","0","0.115856","-0.975572","0.186649","-0.237349","-0.209662","-0.948529","0.964491","0.065592","-0.255842"
"1","384695541473","9.73917","0.573715","-2.42352","0","0","0","0.110052","-0.980306","0.163975","-0.239285","-0.186256","-0.952917","0.964692","0.0656339","-0.25507"
"1","384711410613","9.72","0.535385","-2.55763","0","0","0","0.107166","-0.982115","0.154807","-0.239971","-0.17665","-0.954573","0.964847","0.0651491","-0.25461"
"1","384728256317","9.75832","0.535385","-2.74922","0","0","0","0.102461","-0.985065","0.138379","-0.242223","-0.15963","-0.956998","0.964795","0.0645361","-0.254962"
"1","384744918914","9.87326","0.592865","-2.84502","0","0","0","0.114237","-0.97578","0.186556","-0.237922","-0.209193","-0.948489","0.964543","0.0639667","-0.256058"
"1","384761734100","10.0457","0.573715","-2.86417","0","0","0","0.0992393","-0.986765","0.128241","-0.245663","-0.149184","-0.957807","0.964262","0.063548","-0.257217"
"1","384778610321","10.0457","0.477921","-2.73006","0","0","0","0.102057","-0.984733","0.141015","-0.245251","-0.162287","-0.95578","0.964073","0.0629603","-0.258069"
"1","384795303436","9.89243","0.362961","-2.67259","0","0","0","0.110071","-0.978117","0.176554","-0.241596","-0.198635","-0.949829","0.964114","0.0618936","-0.258173"
"1","384812088104","9.77748","0.305496","-2.55763","0","0","0","0.109739","-0.977265","0.18141","-0.241335","-0.203248","-0.948919","0.964217","0.0603532","-0.258153"
"1","384828811737","9.56674","0.324646","-2.30858","0","0","0","0.0923856","-0.987631","0.126686","-0.246847","-0.145975","-0.957997","0.964641","0.0572332","-0.25728"
"1","384845657440","9.56674","0.324646","-2.30858","0","0","0","0.0923856","-0.987631","0.126686","-0.246847","-0.145975","-0.957997","0.964641","0.0572332","-0.25728"
"1","384862594696","9.85411","0.401291","-2.38521","0","0","0","0.0915328","-0.987422","0.128914","-0.245804","-0.147855","-0.957977","0.964988","0.0559989","-0.256246"
"1","384879226776","10.0648","0.401291","-2.55763","0","0","0","0.0911772","-0.987065","0.13187","-0.244788","-0.150573","-0.957813","0.96528","0.0550506","-0.255351"
"1","384896011444","10.0074","0.401291","-2.67259","0","0","0","0.101913","-0.978747","0.177958","-0.239936","-0.197792","-0.950426","0.965425","0.0541619","-0.254994"
"1","384912887664","9.85411","0.324646","-2.59595","0","0","0","0.0972521","-0.981794","0.163164","-0.241895","-0.182342","-0.953015","0.965416","0.0532142","-0.255224"
"1","384929611297","9.87326","0.248016","-2.44269","0","0","0","0.111794","-0.967602","0.226379","-0.23495","-0.247085","-0.940078","0.965557","0.0519071","-0.254961"
"1","384946395965","10.084","0.343811","-2.51932","0","0","0","0.102381","-0.975384","0.195304","-0.237939","-0.214649","-0.947265","0.965869","0.0505118","-0.254058"
"1","384963272186","10.2373","0.401291","-2.55763","0","0","0","0.0914223","-0.983568","0.155676","-0.241622","-0.173569","-0.954721","0.966054","0.0496681","-0.253519"
"1","384980789276","9.96906","0.401291","-2.17447","0","0","0","0.0957581","-0.979779","0.175679","-0.239057","-0.193961","-0.951436","0.966272","0.0491103","-0.252797"
"1","384996719451","9.58589","0.305496","-1.73383","0","0","0","0.092219","-0.981841","0.165785","-0.237922","-0.183399","-0.953812","0.966896","0.0485155","-0.250515"
"1","385013626190","9.4901","0.133072","-1.59972","0","0","0","0.086856","-0.984701","0.15106","-0.235919","-0.167651","-0.957202","0.967883","0.0475008","-0.246872"
"1","385030288787","9.70084","-0.135147","-1.79131","0","0","0","0.0864533","-0.983149","0.16107","-0.231496","-0.177074","-0.956585","0.968987","0.045413","-0.242903"
"1","385047103973","9.98822","-0.269257","-2.09784","0","0","0","0.0876099","-0.979306","0.18244","-0.227249","-0.197963","-0.953503","0.969888","0.0420771","-0.23989"
"1","385064712615","9.96906","-0.269257","-2.04036","0","0","0","0.076209","-0.985333","0.152676","-0.228642","-0.166311","-0.959199","0.970523","0.0381915","-0.237963"
"1","385081619354","9.85411","-0.211777","-1.98289","0","0","0","0.0889359","-0.970599","0.223669","-0.2212","-0.238198","-0.945691","0.971165","0.0346303","-0.235881"
"1","385097610565","10.1415","-0.135147","-2.38521","0","0","0","0.0731306","-0.982649","0.170447","-0.224549","-0.18274","-0.957175","0.971715","0.0317251","-0.234017"
"1","385114212127","10.4289","-0.211777","-2.40437","0","0","0","0.0948675","-0.956682","0.275244","-0.215595","-0.289673","-0.932528","0.971864","0.0291255","-0.233736"
"1","385131973358","10.4863","-0.135147","-2.34689","0","0","0","0.0884844","-0.961587","0.259847","-0.217567","-0.273229","-0.937022","0.972026","0.0263776","-0.233387"
"1","385147873016","10.0265","-0.0776672","-2.00204","0","0","0","0.0739288","-0.975351","0.207907","-0.221732","-0.219335","-0.950119","0.972301","0.0241415","-0.232482"
"1","385164596649","9.22188","-0.0202026","-1.48477","0","0","0","0.0847982","-0.960734","0.264196","-0.215376","-0.276556","-0.936552","0.972843","0.0225166","-0.23037"
"1","385181381317","8.5705","0.0372772","-1.1974","0","0","0","0.0861427","-0.956087","0.280136","-0.210737","-0.292305","-0.932817","0.97374","0.0213203","-0.226663"
"1","385199112030","8.55135","0.133072","-1.54225","0","0","0","0.0861427","-0.956087","0.280136","-0.210737","-0.292305","-0.932817","0.97374","0.0213203","-0.226663"
"1","385208725067","9.3943","0.267181","-2.21278","0","0","0","0.0872203","-0.952083","0.293138","-0.206087","-0.305138","-0.929741","0.974639","0.0206805","-0.222826"
"1","385223373504","9.96906","0.267181","-2.42352","0","0","0","0.0924654","-0.943082","0.319447","-0.202158","-0.33192","-0.921391","0.974978","0.0206181","-0.221342"
"1","385232711883","10.563","0.267181","-2.65343","0","0","0","0.0813599","-0.96036","0.266627","-0.207557","-0.277974","-0.937897","0.974834","0.020967","-0.221945"
"1","385248611541","11.5209","0.248016","-3.11322","0","0","0","0.0827161","-0.959171","0.270461","-0.208499","-0.282041","-0.936473","0.974518","0.0210706","-0.223315"
"1","385265396209","10.8312","0.286331","-2.5768","0","0","0","0.0941648","-0.943287","0.318344","-0.206196","-0.33131","-0.920715","0.973969","0.0210578","-0.2257"
"1","385282058807","9.4901","0.362961","-1.73383","0","0","0","0.0899944","-0.950337","0.297926","-0.208047","-0.310479","-0.927534","0.97397","0.02149","-0.225657"
"1","385299697967","8.8004","0.286331","-1.23572","0","0","0","0.0881935","-0.952966","0.289961","-0.206126","-0.302254","-0.930674","0.974543","0.0223111","-0.223088"
"1","385315658660","8.99199","0.286331","-0.948334","0","0","0","0.0955162","-0.939947","0.327684","-0.198269","-0.340558","-0.919081","0.975482","0.0228175","-0.218891"
"1","385332443328","9.54758","0.343811","-0.871704","0","0","0","0.0878985","-0.950211","0.298953","-0.195545","-0.310735","-0.930164","0.976748","0.0233012","-0.213122"
"1","385349197479","10.3139","0.362961","-1.02498","0","0","0","0.0933929","-0.938217","0.333206","-0.185976","-0.345218","-0.919912","0.978106","0.0239447","-0.206727"
"1","385366897674","10.8887","0.592865","-1.1974","0","0","0","0.0962897","-0.929766","0.355337","-0.177758","-0.367319","-0.912951","0.979352","0.0247439","-0.200642"
"1","385382888885","10.8695","1.05267","-1.21655","0","0","0","0.0949947","-0.932349","0.348856","-0.172451","-0.360555","-0.916657","0.980427","0.0269168","-0.195036"
"1","385399551483","9.79663","1.35919","-1.25487","0","0","0","0.106897","-0.910334","0.399831","-0.160789","-0.41267","-0.896577","0.981183","0.0315524","-0.190485"
"1","385416397186","9.18356","1.45499","-1.04413","0","0","0","0.0990027","-0.938247","0.331498","-0.16321","-0.343934","-0.924701","0.981611","0.0374443","-0.187181"
"1","385433242889","9.27936","1.35919","-0.890869","0","0","0","0.0990404","-0.946919","0.305836","-0.160443","-0.318522","-0.934239","0.982064","0.0434582","-0.183473"
"1","385449844451","9.73917","1.28256","-1.27403","0","0","0","0.110275","-0.929358","0.352324","-0.149513","-0.365963","-0.91854","0.982591","0.0486148","-0.179308"
"1","385466690155","10.3522","1.05267","-1.69551","0","0","0","0.102761","-0.952715","0.285961","-0.153439","-0.299224","-0.941765","0.9828","0.052899","-0.176932"
"1","385483596893","10.2756","0.55455","-2.07867","0","0","0","0.113099","-0.934319","0.338019","-0.146262","-0.352151","-0.924444","0.982759","0.0551146","-0.176483"
"1","385500290008","9.79663","0.133072","-1.96373","0","0","0","0.108746","-0.944082","0.311261","-0.150837","-0.325163","-0.933551","0.982559","0.05457","-0.177762"
"1","385517044158","9.52841","-0.0776672","-1.31235","0","0","0","0.106474","-0.944296","0.311397","-0.151934","-0.32495","-0.933447","0.982639","0.0520766","-0.178069"
"1","385534652801","9.4901","0.0564423","-0.871704","0","0","0","0.102636","-0.944625","0.311687","-0.150556","-0.324484","-0.933832","0.983259","0.0489184","-0.175523"
"1","385550613494","9.93074","0.0947571","-0.69928","0","0","0","0.104373","-0.932288","0.346331","-0.143342","-0.358699","-0.922382","0.984154","0.0466281","-0.171075"
"1","385567581268","10.2181","0.324646","-0.910019","0","0","0","0.103671","-0.924983","0.365594","-0.137047","-0.377353","-0.915873","0.985125","0.0448457","-0.165886"
"1","385584152313","10.6779","0.49707","-1.40814","0","0","0","0.0894337","-0.954933","0.283029","-0.142362","-0.293506","-0.945298","0.985766","0.044249","-0.162195"
"1","385601028533","10.7929","0.305496","-1.04413","0","0","0","0.0905195","-0.951629","0.293613","-0.139418","-0.304029","-0.942406","0.986088","0.0443713","-0.160195"
"1","385617752166","10.563","0.209702","-1.04413","0","0","0","0.0910482","-0.947071","0.307843","-0.134911","-0.318007","-0.93844","0.986666","0.0439119","-0.156725"
"1","385634506317","9.89243","0.152222","-0.775909","0","0","0","0.0886835","-0.94689","0.309087","-0.131861","-0.318739","-0.938626","0.987293","0.042484","-0.153125"
"1","385651413055","9.31767","0.0564423","-0.56517","0","0","0","0.088804","-0.93971","0.330241","-0.126475","-0.339506","-0.932062","0.987987","0.0410036","-0.148999"
"1","385668106170","9.47095","0.0181122","-0.68013","0","0","0","0.0889546","-0.930484","0.355368","-0.120596","-0.364219","-0.923472","0.988708","0.0392913","-0.144611"
"1","385684860321","10.4289","-0.59494","-1.02498","0","0","0","0.0889546","-0.930484","0.355368","-0.120596","-0.364219","-0.923472","0.988708","0.0392913","-0.144611"
"1","385701644988","11.1569","-0.978119","-0.890869","0","0","0","0.0656506","-0.964361","0.256316","-0.125904","-0.262823","-0.956594","0.989868","0.0305297","-0.138671"
"1","385718429656","11.54","-1.11221","-0.488541","0","0","0","0.064565","-0.947831","0.312167","-0.120589","-0.317937","-0.940412","0.990601","0.0230737","-0.134826"
"1","385735305877","11.4826","-0.882324","-0.450226","0","0","0","0.0646749","-0.947541","0.313024","-0.12053","-0.318801","-0.940127","0.990601","0.0230737","-0.134826"
"1","385752029510","11.6167","-0.7099","-0.890869","0","0","0","0.0500357","-0.945495","0.321768","-0.114031","-0.325473","-0.93865","0.992216","0.0102745","-0.124101"
"1","385768753143","11.655","-0.57579","-1.54225","0","0","0","0.048526","-0.935599","0.349714","-0.112027","-0.353016","-0.928886","0.99252","0.00589782","-0.121942"
"1","385785598846","12.4596","-0.460846","-2.07867","0","0","0","0.0424642","-0.945368","0.323228","-0.115356","-0.325995","-0.938307","0.992416","0.0025581","-0.122897"
"1","385802414031","12.7279","-0.230942","-2.69174","0","0","0","0.0391688","-0.951094","0.306407","-0.120087","-0.3089","-0.943483","0.99199","0.000159587","-0.126313"
"1","385819168182","12.4788","0.267181","-2.42352","0","0","0","0.0380481","-0.955677","0.291948","-0.126061","-0.294416","-0.947327","0.991293","-0.000759229","-0.131675"
"1","385835952850","12.0765","-0.154312","-2.42352","0","0","0","0.0434936","-0.941971","0.332864","-0.124287","-0.335693","-0.933736","0.991293","-0.000759229","-0.131675"
"1","385852737518","11.2527","-1.09306","-2.42352","0","0","0","0.0494223","-0.932368","0.358115","-0.126333","-0.361509","-0.92377","0.990756","0.000413212","-0.135655"
"1","385869552703","10.084","-1.61034","-2.04036","0","0","0","0.0331596","-0.960362","0.276778","-0.140279","-0.278661","-0.950089","0.989557","-0.00732158","-0.143959"
"1","385886337371","8.93451","-1.55286","-1.58057","0","0","0","0.0309756","-0.951166","0.307123","-0.144157","-0.308309","-0.9403","0.98907","-0.0151476","-0.146668"
"1","385903091522","7.84248","-0.767365","-1.5614","0","0","0","0.0305117","-0.939048","0.34243","-0.146513","-0.343091","-0.927805","0.988738","-0.0218616","-0.148051"
"1","385919815155","7.03784","0.267181","-2.17447","0","0","0","0.0356175","-0.924238","0.380152","-0.148548","-0.381064","-0.912537","0.988263","-0.0239688","-0.150867"
"1","385936660858","7.13364","0.956879","-3.30481","0","0","0","0.0416809","-0.922725","0.383198","-0.153555","-0.38489","-0.910099","0.987261","-0.0209082","-0.157732"
"1","385953445526","7.93828","1.47415","-4.87579","0","0","0","0.0485382","-0.932106","0.358919","-0.16405","-0.361902","-0.917668","0.985257","-0.0143389","-0.170478"
"1","385970260711","9.10693","2.20216","-6.58087","0","0","0","0.0485382","-0.932106","0.358919","-0.16405","-0.361902","-0.917668","0.985257","-0.0143389","-0.170478"
"1","385987045379","9.29852","2.35542","-6.12108","0","0","0","0.0647813","-0.962973","0.2617","-0.205005","-0.2695","-0.940926","0.976615","0.00730454","-0.214873"
"1","386003769012","9.33684","1.32088","-4.74168","0","0","0","0.0661374","-0.961167","0.267925","-0.204572","-0.27587","-0.939173","0.976615","0.00730454","-0.214873"
"1","386020523162","9.16441","0.516235","-3.34312","0","0","0","0.0746741","-0.969957","0.231534","-0.223335","-0.242551","-0.944082","0.971877","0.0187888","-0.234738"
"1","386037429901","9.14525","0.0564423","-2.36606","0","0","0","0.0720064","-0.981143","0.17937","-0.241721","-0.191642","-0.951233","0.967671","0.0251374","-0.250962"
"1","386054123016","9.47095","-0.0968323","-1.92542","0","0","0","0.0713931","-0.980615","0.182476","-0.241226","-0.194486","-0.950781","0.967839","0.0238613","-0.250435"
"1","386070877166","9.79663","0.0947571","-1.96373","0","0","0","0.0831857","-0.967562","0.238544","-0.234423","-0.251656","-0.938997","0.968569","0.0221909","-0.247753"
"1","386087692352","10.1032","0.286331","-2.23195","0","0","0","0.0639063","-0.984095","0.165753","-0.23759","-0.17632","-0.955229","0.969261","0.0216639","-0.245079"
"1","386104446502","10.2756","0.420441","-2.44269","0","0","0","0.0736098","-0.976023","0.204842","-0.234765","-0.216586","-0.947616","0.969261","0.0216639","-0.245079"
"1","386121261688","10.2564","0.439606","-2.11699","0","0","0","0.0715727","-0.978718","0.192325","-0.233039","-0.203892","-0.950853","0.96983","0.0232357","-0.242673"
"1","386138046356","10.1032","0.49707","-1.96373","0","0","0","0.0927163","-0.956311","0.27726","-0.2232","-0.291334","-0.930218","0.970353","0.0243619","-0.240461"
"1","386154800506","10.0074","0.49707","-1.90625","0","0","0","0.0776754","-0.973561","0.214816","-0.22887","-0.227125","-0.94659","0.970353","0.0243619","-0.240461"
"1","386171646209","9.87326","0.458755","-1.79131","0","0","0","0.0677278","-0.983664","0.166789","-0.226742","-0.177974","-0.957556","0.971597","0.027035","-0.235091"
"1","386188491912","9.85411","0.477921","-1.79131","0","0","0","0.0798398","-0.972902","0.216994","-0.219706","-0.229511","-0.948185","0.972294","0.028028","-0.232076"
"1","386205185028","9.54758","0.458755","-1.67636","0","0","0","0.0892935","-0.96226","0.257064","-0.213078","-0.270576","-0.938822","0.972946","0.0290558","-0.229198"
"1","386222000213","9.47095","0.477921","-1.69551","0","0","0","0.0893096","-0.962275","0.257004","-0.209903","-0.270424","-0.939581","0.973635","0.0299676","-0.226136"
"1","386238754363","9.29852","0.535385","-1.77214","0","0","0","0.0785253","-0.975264","0.206627","-0.211492","-0.218846","-0.952564","0.97422","0.0311003","-0.223446"
"1","386255569549","8.64714","0.439606","-1.71468","0","0","0","0.0941617","-0.957087","0.274077","-0.203178","-0.28798","-0.935834","0.974604","0.0324332","-0.221576"
"1","386272415252","8.16818","0.401291","-1.35066","0","0","0","0.0879912","-0.9659","0.243506","-0.204602","-0.256767","-0.944568","0.974882","0.0332918","-0.220218"
"1","386289138885","8.05322","0.458755","-0.795074","0","0","0","0.100632","-0.947448","0.30367","-0.195411","-0.318096","-0.927701","0.975545","0.0340157","-0.217153"
"1","386306839080","8.4364","0.68866","-0.62265","0","0","0","0.101606","-0.9448","0.311496","-0.188957","-0.325745","-0.926383","0.976715","0.0352667","-0.211624"
"1","386322799774","8.83871","1.05267","-0.737595","0","0","0","0.0982662","-0.951175","0.29259","-0.184109","-0.306314","-0.933957","0.977981","0.0379079","-0.20522"
"1","386340438934","9.24104","1.39752","-0.795074","0","0","0","0.10105","-0.950172","0.294893","-0.17659","-0.308834","-0.934579","0.979084","0.0423639","-0.198998"
"1","386356308074","9.66252","1.62741","-0.890869","0","0","0","0.10491","-0.949977","0.294174","-0.169177","-0.308543","-0.936045","0.979986","0.0484332","-0.193083"
"1","386373184295","9.8158","1.64658","-0.852554","0","0","0","0.115586","-0.93705","0.329509","-0.157422","-0.344821","-0.925374","0.980744","0.0550883","-0.187369"
"1","386389785858","9.77748","1.43584","-0.967499","0","0","0","0.114006","-0.948335","0.29608","-0.154094","-0.311295","-0.937737","0.981457","0.0612829","-0.181623"
"1","386406662078","10.4863","0.707825","-1.36983","0","0","0","0.118124","-0.943555","0.309437","-0.147353","-0.324824","-0.934225","0.982005","0.0647577","-0.177405"
"1","386423629852","10.7737","0.458755","-1.48477","0","0","0","0.120022","-0.936432","0.329682","-0.142341","-0.344883","-0.92779","0.982514","0.0644279","-0.174686"
"1","386440231414","10.4863","0.765289","-1.27403","0","0","0","0.111483","-0.951623","0.286331","-0.145816","-0.300672","-0.942514","0.98301","0.0633225","-0.172282"
"1","386457046600","10.2373","1.14845","-1.08244","0","0","0","0.118302","-0.935876","0.331874","-0.137032","-0.346411","-0.92802","0.983477","0.0643096","-0.169226"
"1","386474655242","10.5438","1.1293","-0.81424","0","0","0","0.117697","-0.940337","0.319239","-0.134021","-0.333574","-0.933149","0.983964","0.0670444","-0.165286"
"1","386490585418","11.2527","0.822769","-0.81424","0","0","0","0.127261","-0.912387","0.389044","-0.119068","-0.40345","-0.907222","0.984697","0.0691307","-0.15998"
"1","386507431121","11.5209","0.61203","-0.890869","0","0","0","0.112425","-0.94975","0.292122","-0.126653","-0.305284","-0.943801","0.985555","0.0691092","-0.15461"
"1","386524124237","11.3868","0.228867","-0.411911","0","0","0","0.12189","-0.912021","0.391612","-0.109657","-0.404512","-0.907935","0.986468","0.0677251","-0.149315"
"1","386541763397","10.7929","0.209702","0.775909","0","0","0","0.116274","-0.91083","0.396066","-0.10339","-0.407704","-0.907242","0.987821","0.0645397","-0.141576"
"1","386557785125","10.8695","0.573715","1.15907","0","0","0","0.105434","-0.926464","0.361315","-0.0971704","-0.3712","-0.923455","0.989667","0.0622547","-0.129162"
"1","386575393768","11.5784","1.26341","0.871704","0","0","0","0.103389","-0.913202","0.394175","-0.0808216","-0.402701","-0.911756","0.991352","0.0624078","-0.115441"
"1","386591262908","12.7087","2.45122","-0.75676","0","0","0","0.106316","-0.891197","0.440982","-0.06426","-0.448727","-0.891356","0.992254","0.0664279","-0.104975"
"1","386608139129","13.9731","2.98766","-2.61511","0","0","0","0.112988","-0.89812","0.424988","-0.0610035","-0.43319","-0.899236","0.991722","0.0756772","-0.103734"
"1","386625686737","14.2797","2.60449","-3.55386","0","0","0","0.127601","-0.874392","0.468142","-0.0571669","-0.4777","-0.876661","0.990177","0.0851004","-0.110941"
"1","386641647430","13.1685","2.06805","-3.41975","0","0","0","0.129425","-0.924298","0.359057","-0.0785133","-0.370518","-0.925501","0.988476","0.0915926","-0.120524"
"1","386658615203","11.8083","1.64658","-3.70714","0","0","0","0.137711","-0.9179","0.37215","-0.0835306","-0.385154","-0.919064","0.986944","0.0954796","-0.129713"
"1","386675186248","9.83495","1.28256","-3.80293","0","0","0","0.142026","-0.924453","0.353857","-0.0951937","-0.36858","-0.924709","0.985275","0.0976483","-0.14035"
"1","386691970916","6.36729","0.995193","-3.66882","0","0","0","0.151372","-0.910626","0.384508","-0.100861","-0.401189","-0.910425","0.983318","0.0990307","-0.152576"
"1","386709671112","4.75801","0.650345","-3.4006","0","0","0","0.149846","-0.9357","0.319393","-0.123386","-0.338213","-0.932946","0.98098","0.100389","-0.166132"
"1","386725570770","5.16032","0.267181","-3.57303","0","0","0","0.151605","-0.942343","0.298337","-0.139259","-0.319179","-0.937407","0.978582","0.100569","-0.179619"
"1","386742416473","7.09532","0.0181122","-3.99451","0","0","0","0.157522","-0.935061","0.317566","-0.14993","-0.340498","-0.928214","0.976068","0.0986017","-0.193829"
"1","386760055633","9.77748","-0.345886","-3.97536","0","0","0","0.152684","-0.944812","0.289859","-0.168519","-0.313893","-0.934384","0.973801","0.0938187","-0.207145"
"1","386776718231","11.1569","-0.230942","-3.78377","0","0","0","0.156645","-0.930392","0.331412","-0.173035","-0.356217","-0.918242","0.972379","0.0864919","-0.21679"
"1","386793655487","11.3293","0.458755","-3.41975","0","0","0","0.154297","-0.928632","0.337393","-0.180167","-0.362202","-0.914522","0.971459","0.0803214","-0.223195"
"1","386809433074","10.7162","1.26341","-3.05576","0","0","0","0.155557","-0.925685","0.344832","-0.183077","-0.370051","-0.910794","0.970713","0.0785497","-0.227036"
"1","386826644988","9.08778","1.72321","-2.71091","0","0","0","0.151297","-0.939692","0.306737","-0.19093","-0.332247","-0.923665","0.969874","0.0811828","-0.229683"
"1","386843032928","8.51303","1.28256","-2.32774","0","0","0","0.148624","-0.951873","0.268044","-0.19821","-0.294229","-0.934956","0.968826","0.0858281","-0.2324"
"1","386859726043","8.89619","0.477921","-1.69551","0","0","0","0.15987","-0.936711","0.311472","-0.191151","-0.338934","-0.921187","0.968454","0.0877316","-0.233239"
"1","386876541229","9.79663","-0.0585175","-1.50394","0","0","0","0.152958","-0.943191","0.294948","-0.192315","-0.321164","-0.927291","0.969339","0.0851139","-0.230514"
"1","386893356414","10.1223","0.133072","-1.71468","0","0","0","0.151761","-0.935777","0.31826","-0.186536","-0.343319","-0.920509","0.970656","0.0803305","-0.226659"
"1","386910080047","9.66252","0.362961","-1.59972","0","0","0","0.149434","-0.932536","0.328703","-0.183171","-0.35279","-0.917599","0.971657","0.0769115","-0.223532"
"1","386926864715","8.74294","0.516235","-1.23572","0","0","0","0.145821","-0.934413","0.324974","-0.181325","-0.348164","-0.91973","0.972552","0.0751896","-0.220202"
"1","386943618865","8.2065","0.49707","-0.81424","0","0","0","0.143752","-0.934573","0.325438","-0.177714","-0.347886","-0.92054","0.973526","0.0744943","-0.216095"
"1","386959854217","8.16818","0.592865","-0.795074","0","0","0","0.135614","-0.945519","0.295977","-0.177283","-0.317074","-0.931684","0.974771","0.0738779","-0.210624"
"1","386977249237","8.53218","0.68866","-0.948334","0","0","0","0.133735","-0.945976","0.295371","-0.172355","-0.315708","-0.933071","0.975914","0.0738759","-0.205265"
"1","386993972869","9.29852","0.976028","-1.02498","0","0","0","0.132085","-0.947532","0.291095","-0.168416","-0.310851","-0.935419","0.976826","0.0745296","-0.200638"
"1","387010818572","9.43263","1.16762","-1.10161","0","0","0","0.119249","-0.968759","0.217452","-0.173154","-0.23595","-0.956214","0.977649","0.0763749","-0.195881"
"1","387027572723","9.26021","1.30173","-1.61888","0","0","0","0.134791","-0.945473","0.296499","-0.158432","-0.315945","-0.935456","0.978126","0.079116","-0.19238"
"1","387044357391","9.18356","1.07182","-1.58057","0","0","0","0.134599","-0.950443","0.280253","-0.159094","-0.299886","-0.940616","0.978045","0.0820198","-0.191574"
"1","387061172576","8.93451","0.822769","-1.13992","0","0","0","0.12905","-0.961575","0.242321","-0.162555","-0.261572","-0.951397","0.978224","0.0833869","-0.190065"
"1","387077957244","8.93451","0.68866","-0.641815","0","0","0","0.127157","-0.963586","0.235229","-0.159933","-0.253969","-0.953898","0.978904","0.0836741","-0.186403"
"1","387094741912","9.4901","0.726974","-0.526855","0","0","0","0.119254","-0.972676","0.199196","-0.158673","-0.21672","-0.963252","0.980103","0.0832641","-0.180182"
"1","387111526580","10.4289","0.841919","-0.81424","0","0","0","0.126607","-0.95757","0.258901","-0.144463","-0.276018","-0.950234","0.981377","0.0829044","-0.173279"
"1","387128280731","11.1952","0.61203","-2.32774","0","0","0","0.129959","-0.947668","0.29161","-0.135474","-0.308317","-0.941588","0.982221","0.0828623","-0.168453"
"1","387145095916","11.5784","-0.154312","-2.00204","0","0","0","0.110288","-0.978168","0.176139","-0.152739","-0.191795","-0.969477","0.982093","0.0800186","-0.170557"
"1","387161850067","11.7891","-0.78653","-1.15909","0","0","0","0.115516","-0.960138","0.25454","-0.144394","-0.269765","-0.952038","0.982754","0.0732212","-0.169801"
"1","387178634735","11.7891","-1.47623","-0.143692","0","0","0","0.104683","-0.960609","0.257435","-0.141456","-0.270607","-0.95224","0.984394","0.0632673","-0.164212"
"1","387194900604","11.9232","-1.93602","0.948334","0","0","0","0.0961392","-0.946644","0.307606","-0.129696","-0.318317","-0.93907","0.986882","0.0503861","-0.153379"
"1","387212204071","12.0381","-1.72528","1.79129","0","0","0","0.087655","-0.91819","0.386322","-0.112047","-0.394441","-0.912064","0.989829","0.0366607","-0.137455"
"1","387229049774","12.1531","-0.78653","2.34688","0","0","0","0.0711527","-0.915447","0.396098","-0.0982252","-0.401605","-0.91053","0.992617","0.0258798","-0.118495"
"1","387245803924","12.5938","0.171387","1.9254","0","0","0","0.0622392","-0.897444","0.436716","-0.0789253","-0.440619","-0.894218","0.994936","0.0211875","-0.0982548"
"1","387262558074","12.7853","0.956879","0.488525","0","0","0","0.0515755","-0.924566","0.377514","-0.0688895","-0.380411","-0.922248","0.99629","0.0215586","-0.0833128"
"1","387279342742","14.8736","0.918564","-5.48886","0","0","0","0.0528901","-0.928381","0.367848","-0.0628475","-0.370728","-0.926613","0.996621","0.0258903","-0.0779542"
"1","387296127410","14.1073","0.650345","-8.86072","0","0","0","0.0653602","-0.924344","0.37592","-0.0859108","-0.380539","-0.920766","0.994157","0.0278858","-0.104283"
"1","387312942596","11.5592","1.1293","-7.34721","0","0","0","0.0697475","-0.954275","0.290681","-0.126005","-0.297484","-0.946375","0.989575","0.0293802","-0.140992"
"1","387329696746","8.89619","0.899399","-6.56172","0","0","0","0.0709189","-0.971898","0.224466","-0.156329","-0.233082","-0.959809","0.985156","0.032978","-0.168466"
"1","387346450897","6.80794","0.63118","-5.35475","0","0","0","0.0813368","-0.968467","0.235492","-0.177876","-0.246587","-0.952657","0.980686","0.0355978","-0.192323"
"1","387363205047","5.65845","0.784454","-3.87956","0","0","0","0.0674905","-0.988344","0.136458","-0.203469","-0.147529","-0.967903","0.976752","0.0375593","-0.211055"
"1","387380020233","6.44394","0.803604","-2.74922","0","0","0","0.0603513","-0.994686","0.083409","-0.218149","-0.0946848","-0.971311","0.974048","0.0404243","-0.222704"
"1","387396804901","7.61259","0.899399","-2.53848","0","0","0","0.0614971","-0.995434","0.0729959","-0.22432","-0.0850475","-0.970797","0.972573","0.0433268","-0.228526"
"1","387413589569","9.16441","0.784454","-2.51932","0","0","0","0.0717762","-0.99211","0.102792","-0.225347","-0.116523","-0.967286","0.971631","0.0462643","-0.231932"
"1","387430343719","10.3714","0.401291","-2.481","0","0","0","0.0647454","-0.995676","0.0666142","-0.228772","-0.0797863","-0.970205","0.971325","0.0475769","-0.232948"
"1","387447158905","10.9845","-0.0968323","-2.90248","0","0","0","0.0625247","-0.996083","0.0625259","-0.229694","-0.0753282","-0.970343","0.971253","0.0463086","-0.233504"
"1","387463943572","10.812","-0.59494","-2.92165","0","0","0","0.0647922","-0.993958","0.0885958","-0.230013","-0.101267","-0.967905","0.971028","0.0423345","-0.235185"
"1","387480758758","9.91159","-0.690735","-2.65343","0","0","0","0.0595573","-0.994063","0.0910617","-0.232194","-0.102517","-0.967252","0.970844","0.036463","-0.236921"
"1","387497512908","8.60883","-0.345886","-2.30858","0","0","0","0.0594161","-0.991853","0.112679","-0.232659","-0.123529","-0.964682","0.970742","0.031102","-0.238103"
"1","387514267059","7.45932","0.0947571","-1.8871","0","0","0","0.0559176","-0.992465","0.109029","-0.234139","-0.11919","-0.964869","0.970594","0.0284251","-0.23904"
"1","387531051727","7.11447","0.075592","-1.71468","0","0","0","0.0703587","-0.982669","0.171495","-0.230355","-0.18328","-0.955691","0.97056","0.0277364","-0.239258"
"1","387547866912","7.57426","-0.0968323","-1.69551","0","0","0","0.0619319","-0.988077","0.140958","-0.232237","-0.151618","-0.960769","0.970686","0.0267667","-0.238858"
"1","387564682098","8.41724","-0.345886","-1.59972","0","0","0","0.055126","-0.991103","0.121145","-0.232632","-0.13074","-0.963737","0.971001","0.0249447","-0.237769"
"1","387581497283","8.81956","-0.365051","-1.54225","0","0","0","0.0689553","-0.97841","0.194829","-0.22594","-0.205536","-0.952211","0.971698","0.0216403","-0.235235"
"1","387598281951","9.18356","0.152222","-1.40814","0","0","0","0.0698753","-0.974509","0.213189","-0.221956","-0.223542","-0.949086","0.97255","0.0189992","-0.231918"
"1","387615066619","9.56674","0.899399","-1.2932","0","0","0","0.070888","-0.973166","0.218911","-0.217211","-0.229257","-0.948821","0.973547","0.0197101","-0.227634"
"1","387631851287","9.75832","1.37836","-1.13992","0","0","0","0.0763366","-0.970792","0.227455","-0.210242","-0.238663","-0.948071","0.974665","0.0245521","-0.222319"
"1","387648635955","9.8158","1.37836","-1.04413","0","0","0","0.0918939","-0.956432","0.277117","-0.198317","-0.290298","-0.936161","0.975821","0.0310707","-0.216353"
"1","387665390106","9.27936","1.34004","-0.852554","0","0","0","0.0885941","-0.966472","0.241003","-0.194106","-0.254067","-0.947509","0.976972","0.0371635","-0.210107"
"1","387682205291","8.34061","1.14845","-0.296951","0","0","0","0.0883343","-0.971292","0.220883","-0.18807","-0.234025","-0.953867","0.978175","0.0427176","-0.203343"
"1","387698989959","7.95744","0.669495","0.105362","0","0","0","0.0943212","-0.96569","0.241965","-0.176857","-0.255436","-0.950513","0.979707","0.0468604","-0.194882"
"1","387715774627","8.97282","0.362961","0.296951","0","0","0","0.092724","-0.965352","0.243923","-0.166558","-0.256565","-0.952068","0.981662","0.0476523","-0.184576"
"1","387732559295","10.4289","0.918564","-0.182007","0","0","0","0.0993537","-0.948106","0.302033","-0.150431","-0.314358","-0.93731","0.983615","0.0476899","-0.173857"
"1","387749343963","11.7125","1.78069","-0.929184","0","0","0","0.0992702","-0.949618","0.297274","-0.141839","-0.309203","-0.940359","0.984899","0.0511844","-0.165388"
"1","387766098113","12.4022","2.37459","-1.54225","0","0","0","0.0955821","-0.967823","0.232772","-0.141461","-0.244676","-0.95923","0.985319","0.0587571","-0.160296"
"1","387782913299","12.7087","2.39375","-1.86794","0","0","0","0.117096","-0.938185","0.325727","-0.126198","-0.339381","-0.932145","0.98507","0.0680445","-0.158137"
"1","387799697967","12.6895","2.31711","-1.35066","0","0","0","0.111266","-0.967194","0.228376","-0.134192","-0.24232","-0.960871","0.984689","0.0762657","-0.156752"
"1","387816452117","12.3638","2.183","0.201157","0","0","0","0.115707","-0.96903","0.218158","-0.128834","-0.232419","-0.964045","0.984893","0.0834404","-0.151737"
"1","387833206268","12.4022","1.68489","1.86794","0","0","0","0.117487","-0.970224","0.211809","-0.115421","-0.225181","-0.967456","0.986344","0.0892159","-0.13844"
"1","387849990936","12.498","1.53162","1.12076","0","0","0","0.111149","-0.978727","0.17245","-0.0998851","-0.183648","-0.977904","0.988771","0.0914683","-0.118173"
"1","387866226287","12.8236","1.91479","-0.507706","0","0","0","0.111141","-0.973076","0.20192","-0.07961","-0.211243","-0.974186","0.990611","0.0921968","-0.100944"
"1","387883560272","16.0039","0.49707","-6.67667","0","0","0","0.107678","-0.986731","0.121525","-0.0888241","-0.131295","-0.987356","0.99021","0.0955219","-0.101783"
"1","387899856658","16.1572","0.267181","-7.04068","0","0","0","0.12019","-0.961627","0.246632","-0.0950658","-0.25844","-0.961338","0.988189","0.0920971","-0.12248"
"1","387916610809","13.7624","0.861084","-6.82994","0","0","0","0.117774","-0.968528","0.219276","-0.124765","-0.233495","-0.96432","0.985172","0.0862135","-0.148338"
"1","387933395477","9.14525","1.55078","-5.6996","0","0","0","0.120468","-0.971475","0.204266","-0.148536","-0.221088","-0.963876","0.981542","0.0857756","-0.170933"
"1","387950149627","6.11824","1.35919","-4.32021","0","0","0","0.118074","-0.982457","0.144348","-0.174383","-0.163621","-0.970989","0.977573","0.0894767","-0.190643"
"1","387966964813","4.24072","1.20593","-3.13239","0","0","0","0.124008","-0.982026","0.142296","-0.187697","-0.164028","-0.968434","0.974367","0.0933846","-0.204664"
"1","387983718963","3.64682","0.55455","-3.45808","0","0","0","0.128014","-0.982584","0.134685","-0.199518","-0.158541","-0.966983","0.971496","0.0969149","-0.216339"
"1","388000656219","7.99576","-0.57579","-2.95996","0","0","0","0.133845","-0.978822","0.154895","-0.208752","-0.180642","-0.96114","0.968766","0.0963091","-0.228509"
"1","388017379852","10.448","-0.824844","-2.86417","0","0","0","0.112989","-0.989079","0.0946327","-0.222833","-0.118041","-0.967684","0.968287","0.0882501","-0.233736"
"1","388034134002","12.2872","-0.384201","-2.92165","0","0","0","0.108105","-0.987584","0.113981","-0.223192","-0.135836","-0.965263","0.968761","0.07891","-0.235106"
"1","388050918670","12.6895","0.841919","-3.11322","0","0","0","0.116168","-0.977499","0.176068","-0.216924","-0.197958","-0.955906","0.969252","0.0728526","-0.235039"
"1","388067703338","11.4442","2.06805","-3.03659","0","0","0","0.115443","-0.978924","0.168466","-0.218085","-0.19044","-0.957168","0.969078","0.0737589","-0.235474"
"1","388084488006","9.33684","2.81523","-2.46185","0","0","0","0.130082","-0.963615","0.233504","-0.209683","-0.256914","-0.943413","0.969078","0.0737589","-0.235474"
"1","388101303192","7.67006","2.7386","-2.15532","0","0","0","0.113881","-0.990261","0.0800848","-0.227884","-0.104497","-0.968065","0.967006","0.0919943","-0.237565"
"1","388118637176","6.99953","2.20216","-1.81047","0","0","0","0.133637","-0.983708","0.120249","-0.222409","-0.148012","-0.963653","0.965751","0.102035","-0.238566"
"1","388134842010","7.24858","1.56995","-1.5614","0","0","0","0.131285","-0.988167","0.0793143","-0.226774","-0.107821","-0.967961","0.965058","0.109092","-0.238246"
"1","388151657196","8.39807","0.382126","-1.69551","0","0","0","0.124378","-0.991339","0.0421461","-0.230071","-0.0701319","-0.970644","0.965193","0.11103","-0.236801"
"1","388168441863","9.06862","-0.0585175","-1.6572","0","0","0","0.131412","-0.98722","0.0901534","-0.222434","-0.117987","-0.967782","0.966051","0.107125","-0.235096"
"1","388185226531","8.97282","-0.0585175","-1.15909","0","0","0","0.124849","-0.988114","0.0896884","-0.220185","-0.115735","-0.968568","0.967435","0.101177","-0.232018"
"1","388202011199","8.28313","0.133072","-0.948334","0","0","0","0.12019","-0.988268","0.0942425","-0.215446","-0.118634","-0.969283","0.969091","0.0961942","-0.227177"
"1","388218795867","7.99576","0.209702","-0.56517","0","0","0","0.12019","-0.988268","0.0942425","-0.215446","-0.118634","-0.969283","0.969091","0.0961942","-0.227177"
"1","388235580535","8.35976","0.152222","-0.411911","0","0","0","0.11045","-0.990043","0.0872661","-0.204567","-0.108569","-0.972813","0.972601","0.0895952","-0.214521"
"1","388252334686","8.91536","0.152222","-0.526855","0","0","0","0.0993682","-0.993555","0.0545436","-0.200935","-0.0737214","-0.976827","0.974552","0.0861057","-0.206966"
"1","388269149871","9.0303","0.516235","-0.507706","0","0","0","0.0973167","-0.993247","0.0631691","-0.192784","-0.0810808","-0.977886","0.976404","0.0829866","-0.199372"
"1","388285934539","9.26021","1.26341","-0.546021","0","0","0","0.0878722","-0.995926","0.0202336","-0.189329","-0.0366398","-0.98123","0.977974","0.0823921","-0.191777"
"1","388303238006","10.1223","1.43584","-0.526855","0","0","0","0.0787387","-0.995953","-0.043339","-0.187383","0.0279128","-0.98189","0.979126","0.0854337","-0.184427"
"1","388320053192","11.0611","1.62741","-1.13992","0","0","0","0.0912767","-0.99581","0.00551354","-0.176166","-0.0215963","-0.984124","0.980119","0.0888562","-0.177399"
"1","388336837860","12.0381","1.72321","-1.38898","0","0","0","0.0978584","-0.994947","0.0224739","-0.170027","-0.0389648","-0.984669","0.980568","0.092537","-0.172981"
"1","388353653045","11.9615","1.09099","-1.13992","0","0","0","0.0942471","-0.995448","-0.0141379","-0.16944","-0.00204512","-0.985538","0.981024","0.0952796","-0.168862"
"1","388370407196","10.8887","-0.0202026","-0.507706","0","0","0","0.101771","-0.993962","0.0410231","-0.158931","-0.0569528","-0.985646","0.98203","0.0937903","-0.163768"
"1","388387222381","10.1032","-1.49539","0.737595","0","0","0","0.0827856","-0.99611","-0.0301803","-0.157697","0.0168087","-0.987344","0.984011","0.0864972","-0.155692"
"1","388403976531","10.3139","-3.08553","2.00203","0","0","0","0.0802169","-0.99515","0.0569425","-0.136842","-0.0675803","-0.988285","0.987339","0.071485","-0.1416"
"1","388420761199","11.5975","-3.73691","2.86417","0","0","0","0.0509473","-0.99865","0.0101259","-0.120729","-0.0162232","-0.992553","0.991377","0.0493454","-0.121393"
"1","388437545867","14.9311","-2.98973","1.31233","0","0","0","0.0422884","-0.985131","0.166519","-0.0927741","-0.16982","-0.981098","0.994789","0.0260404","-0.0985761"
"1","388454361053","16.5212","-1.91687","-3.32397","0","0","0","0.0342361","-0.952892","0.301372","-0.0802472","-0.303196","-0.949543","0.996187","0.00832438","-0.0868471"
"1","388470596405","16.3871","0.458755","-10.2976","0","0","0","0.0274466","-0.966668","0.254559","-0.101437","-0.256033","-0.961331","0.994463","0.000563634","-0.105083"
"1","388487930389","14.318","1.56995","-11.0064","0","0","0","0.0445094","-0.962739","0.266743","-0.142713","-0.270396","-0.952113","0.988763","0.00431019","-0.149431"
"1","388504684539","11.7125","2.31711","-8.43924","0","0","0","0.0382328","-0.990664","0.130857","-0.186105","-0.135721","-0.973111","0.981786","0.0128516","-0.189557"
"1","388521499725","8.76208","2.39375","-6.65752","0","0","0","0.0495803","-0.992184","0.114507","-0.213499","-0.122526","-0.969229","0.975684","0.0236076","-0.217906"
"1","388538284393","6.63551","2.12553","-4.95242","0","0","0","0.0500874","-0.996843","0.0616041","-0.236186","-0.0717543","-0.969055","0.970416","0.0339874","-0.239035"
"1","388555069061","4.91127","2.10637","-3.28566","0","0","0","0.0404479","-0.999036","-0.0170808","-0.254041","0.00625068","-0.967173","0.966347","0.0434594","-0.253543"
"1","388571853729","5.17949","1.53162","-1.6572","0","0","0","0.0417668","-0.998038","-0.0466479","-0.263376","0.0340393","-0.964093","0.963789","0.052553","-0.261437"
"1","388588638397","8.05322","0.841919","-1.23572","0","0","0","0.0431789","-0.997226","-0.0606331","-0.262938","0.0472071","-0.963657","0.963846","0.0575524","-0.26017"
"1","388605392547","10.1798","0.861084","-2.11699","0","0","0","0.0348473","-0.994485","-0.0989165","-0.260442","0.08652","-0.961605","0.96486","0.0592714","-0.255991"
"1","388622207733","11.6933","0.573715","-3.30481","0","0","0","0.0361081","-0.994551","-0.0978008","-0.258757","0.0852228","-0.962176","0.965267","0.060049","-0.25427"
"1","388638961883","12.1148","-0.230942","-4.14778","0","0","0","0.0426792","-0.996867","-0.0665988","-0.259456","0.0533138","-0.964282","0.964811","0.0584342","-0.256368"
"1","388655777069","11.3101","-0.997269","-4.12862","0","0","0","0.0439879","-0.998332","-0.0373921","-0.263005","0.0245359","-0.964482","0.963791","0.0522599","-0.261487"
"1","388672531219","9.45178","-0.939789","-3.13239","0","0","0","0.050205","-0.998591","0.0172112","-0.265291","-0.0299477","-0.963703","0.96286","0.0438167","-0.26642"
"1","388689346405","7.89996","-0.518311","-2.05952","0","0","0","0.0193929","-0.997471","-0.0683748","-0.270339","0.0606089","-0.960855","0.96257","0.0371182","-0.26848"
"1","388706100555","7.07616","-0.0393524","-1.08244","0","0","0","0.0282496","-0.999336","-0.023032","-0.267631","0.0146386","-0.96341","0.963107","0.03338","-0.26704"
"1","388722854705","7.57426","0.650345","-0.62265","0","0","0","0.0454021","-0.998039","0.0430905","-0.260016","-0.0534547","-0.964124","0.964536","0.032569","-0.261933"
"1","388739700408","8.72377","0.765289","-0.890869","0","0","0","0.0504834","-0.997209","0.0550003","-0.252145","-0.0660126","-0.965435","0.966372","0.0348704","-0.254774"
"1","388756454559","9.27936","0.899399","-1.12076","0","0","0","0.0652082","-0.992388","0.104467","-0.241994","-0.117291","-0.963162","0.968084","0.0375258","-0.247801"
"1","388773269744","9.16441","0.995193","-1.17824","0","0","0","0.0355515","-0.999029","-0.0260403","-0.242364","0.0166599","-0.970042","0.969534","0.0407977","-0.241537"
"1","388790084930","8.60883","0.861084","-1.23572","0","0","0","0.0461526","-0.998931","0.00267354","-0.235677","-0.0134895","-0.971738","0.970735","0.0442181","-0.236048"
"1","388806839080","7.93828","0.726974","-0.737595","0","0","0","0.047107","-0.998882","-0.00402378","-0.231175","-0.00698307","-0.972887","0.971771","0.04676","-0.231245"
"1","388823623748","7.5168","0.707825","0.124527","0","0","0","0.0317513","-0.996391","-0.0787215","-0.227307","0.0694989","-0.97134","0.973305","0.0487352","-0.22428"
"1","388840408416","7.38269","0.61203","0.948334","0","0","0","0.0536873","-0.998523","0.00836938","-0.21225","-0.0196011","-0.977019","0.975739","0.0506771","-0.212989"
"1","388857223602","7.5168","0.343811","1.02496","0","0","0","0.04995","-0.998644","-0.0146615","-0.198846","0.00444223","-0.980021","0.978757","0.0518674","-0.198354"
"1","388874038787","9.16441","-0.173462","0.181992","0","0","0","0.0567385","-0.997968","0.0290067","-0.182721","-0.0389424","-0.982393","0.981526","0.0504394","-0.18456"
"1","388890762420","10.6779","-0.0776672","-0.775909","0","0","0","0.0618648","-0.994662","0.082581","-0.170091","-0.0920359","-0.981121","0.983485","0.0466506","-0.174877"
"1","388907547088","11.5209","0.362961","-1.1974","0","0","0","0.052541","-0.997467","0.0479564","-0.166779","-0.056113","-0.984396","0.984593","0.043723","-0.169305"
"1","388924301238","11.4059","0.956879","-1.25487","0","0","0","0.0582165","-0.994694","0.0848188","-0.160346","-0.0931767","-0.982653","0.985343","0.0436063","-0.16492"
"1","388941116424","11.0419","1.60826","-0.929184","0","0","0","0.0633956","-0.993195","0.0976954","-0.155775","-0.10654","-0.98203","0.985756","0.0470379","-0.161469"
"1","388957901092","11.0611","2.29796","0.411896","0","0","0","0.0698422","-0.992763","0.0976885","-0.148845","-0.107202","-0.983032","0.986391","0.0541167","-0.155255"
"1","388974685760","11.8466","2.47038","2.1553","0","0","0","0.078499","-0.992004","0.098825","-0.133388","-0.108691","-0.985086","0.98795","0.0641461","-0.140854"
"1","388991409393","13.3026","1.79984","2.76837","0","0","0","0.0750694","-0.997102","0.0123346","-0.116963","-0.0210887","-0.992912","0.990295","0.0730947","-0.118207"
"1","389008224578","14.9311","1.30173","0.66095","0","0","0","0.0820068","-0.994954","0.0578052","-0.0903455","-0.0651832","-0.993775","0.992528","0.0762739","-0.0952351"
"1","389025009246","15.3909","3.17923","-2.55763","0","0","0","0.0853135","-0.994108","0.0668715","-0.0814445","-0.0738496","-0.993938","0.99302","0.07935","-0.087265"
"1","389041824432","17.2492","2.96849","-6.7533","0","0","0","0.0885932","-0.995966","-0.0142671","-0.0989062","0.00545653","-0.995082","0.991145","0.0895686","-0.0980238"
"1","389058609100","17.0002","1.51247","-6.86826","0","0","0","0.0886889","-0.994576","-0.0543341","-0.128279","0.0426898","-0.990819","0.987764","0.0948446","-0.123797"
"1","389075393768","13.9348","-0.269257","-6.17856","0","0","0","0.103385","-0.992223","0.0693197","-0.138542","-0.0833791","-0.986841","0.984946","0.092421","-0.146084"
"1","389092178436","9.8158","-1.11221","-5.33559","0","0","0","0.0918979","-0.994895","0.0417047","-0.161864","-0.05625","-0.985209","0.982525","0.0837882","-0.166207"
"1","389108963104","6.38646","-0.518311","-2.78754","0","0","0","0.0957207","-0.989475","0.108521","-0.171603","-0.123793","-0.977357","0.980505","0.0749307","-0.181647"
"1","389125717254","4.45148","0.0372772","-2.30858","0","0","0","0.0821697","-0.99518","0.0535172","-0.183699","-0.0679025","-0.980634","0.979542","0.0707474","-0.188393"
"1","389142532440","3.91504","-0.0393524","-3.13239","0","0","0","0.0857313","-0.993408","0.0760936","-0.189864","-0.0912649","-0.977559","0.97806","0.06936","-0.196437"
"1","389159317108","7.40184","-0.192627","-3.66882","0","0","0","0.0990197","-0.983985","0.148216","-0.195116","-0.165256","-0.966758","0.975769","0.0668087","-0.208355"
"1","389176101776","9.26021","0.113907","-3.53471","0","0","0","0.0920575","-0.987899","0.124821","-0.208305","-0.141686","-0.967747","0.973722","0.0630875","-0.218828"
"1","389192855926","10.5246","0.803604","-3.11322","0","0","0","0.105843","-0.975603","0.192345","-0.208134","-0.210883","-0.955096","0.972357","0.0610565","-0.225377"
"1","389209671112","10.7737","1.60826","-3.43892","0","0","0","0.0982689","-0.984213","0.147198","-0.216156","-0.165492","-0.962231","0.971401","0.0627397","-0.229006"
"1","389226486297","10.3139","2.183","-3.63051","0","0","0","0.109512","-0.979598","0.168507","-0.21774","-0.189052","-0.957522","0.969843","0.0681693","-0.234001"
"1","389243240447","9.27936","2.60449","-3.20901","0","0","0","0.10817","-0.986519","0.122801","-0.226842","-0.144761","-0.963113","0.967906","0.0763238","-0.239443"
"1","389259994598","8.5705","2.66196","-2.69174","0","0","0","0.110699","-0.989973","0.0877422","-0.233679","-0.111736","-0.965872","0.965992","0.0864179","-0.243705"
"1","389276779266","8.07239","2.02974","-2.15532","0","0","0","0.117853","-0.990063","0.0767226","-0.235916","-0.102964","-0.966303","0.964601","0.0957812","-0.245706"
"1","389293594451","7.67006","1.18677","-1.71468","0","0","0","0.122423","-0.989861","0.0720303","-0.235702","-0.0994973","-0.966719","0.964083","0.101371","-0.245493"
"1","389310348602","7.30606","0.113907","-1.50394","0","0","0","0.112046","-0.99329","0.0286336","-0.239745","-0.0549852","-0.969277","0.964348","0.101738","-0.244298"
"1","389327194305","7.57426","-0.460846","-1.21655","0","0","0","0.117404","-0.990657","0.069391","-0.233568","-0.0954594","-0.967643","0.965227","0.0973974","-0.242593"
"1","389343948455","8.2065","-0.671585","-0.641815","0","0","0","0.101405","-0.994233","0.034901","-0.233954","-0.0579302","-0.97052","0.966945","0.09025","-0.238479"
"1","389360733123","8.45555","-0.365051","-0.488541","0","0","0","0.110124","-0.987931","0.10893","-0.219202","-0.131039","-0.96684","0.969445","0.0825941","-0.230987"
"1","389377487274","8.64714","0.113907","-0.258636","0","0","0","0.0993932","-0.990916","0.0905944","-0.213652","-0.110174","-0.970677","0.97184","0.077123","-0.222662"
"1","389394302459","9.22188","0.63118","-0.546021","0","0","0","0.0877992","-0.994679","0.0538902","-0.20798","-0.0712112","-0.975537","0.974185","0.0744433","-0.213126"
"1","389410476776","9.35599","0.669495","-0.81424","0","0","0","0.0844999","-0.995438","0.0442929","-0.200146","-0.0605021","-0.977896","0.976115","0.073767","-0.204346"
"1","389427841278","9.72","0.707825","-1.08244","0","0","0","0.0805061","-0.996397","0.0266795","-0.195762","-0.0420507","-0.979749","0.977341","0.073653","-0.198442"
"1","389444656463","10.5821","0.803604","-0.603485","0","0","0","0.0905105","-0.992594","0.0810223","-0.185374","-0.096726","-0.977896","0.978491","0.0734904","-0.192756"
"1","389461441131","10.4863","0.976028","-0.890869","0","0","0","0.0795036","-0.996574","0.0227955","-0.182642","-0.0370438","-0.982481","0.97996","0.0739474","-0.184962"
"1","389478225799","10.6971","0.63118","-1.27403","0","0","0","0.0735268","-0.997197","-0.0138729","-0.180246","0.000393836","-0.983621","0.98087","0.0748231","-0.179712"
"1","389495010467","11.0611","0.0181122","-1.23572","0","0","0","0.0749421","-0.997179","0.00419015","-0.175198","-0.0173032","-0.984381","0.981677","0.0730375","-0.176001"
"1","389511764617","11.3868","-0.844009","-0.450226","0","0","0","0.0731872","-0.996977","0.0260927","-0.168977","-0.0381806","-0.98488","0.982899","0.0676715","-0.17126"
"1","389528579803","11.5209","-1.7636","-0.00958252","0","0","0","0.0659616","-0.996689","0.0475438","-0.159145","-0.057546","-0.985577","0.985049","0.0574438","-0.162414"
"1","389545364471","11.3868","-2.24255","0.890854","0","0","0","0.0626678","-0.990158","0.12514","-0.1447","-0.133076","-0.980486","0.987489","0.0433371","-0.151616"
"1","389561538787","12.5746","-0.57579","2.9408","0","0","0","0.0247329","-0.995963","0.0862947","-0.11233","-0.0885432","-0.989718","0.993363","0.0147851","-0.114067"
"1","389578903289","12.5746","-0.57579","2.9408","0","0","0","0.0247329","-0.995963","0.0862947","-0.11233","-0.0885432","-0.989718","0.993363","0.0147851","-0.114067"
"1","389595138641","13.226","-0.173462","1.9254","0","0","0","0.0249245","-0.981565","0.189499","-0.0865417","-0.190965","-0.977775","0.995936","0.00797099","-0.0897059"
"1","389611953826","13.8007","-0.135147","-0.450226","0","0","0","0.0151687","-0.992017","0.125185","-0.0703701","-0.125948","-0.989538","0.997406","0.00620074","-0.0717188"
"1","389629287811","15.889","0.0564423","-7.71121","0","0","0","0.0152691","-0.991501","0.129197","-0.0766133","-0.129992","-0.988551","0.996944","0.00519604","-0.077947"
"1","389646072479","14.2414","0.228867","-10.0485","0","0","0","0.0238438","-0.986704","0.160771","-0.112992","-0.162447","-0.980226","0.99331","0.00520639","-0.115363"
"1","389662857147","11.3676","0.784454","-7.09814","0","0","0","0.0345326","-0.983101","0.179775","-0.150299","-0.182945","-0.971566","0.988037","0.00653076","-0.154076"
"1","389679611297","8.89619","1.35919","-5.41222","0","0","0","0.0304693","-0.993743","0.107458","-0.176738","-0.11117","-0.977959","0.983786","0.0108058","-0.179019"
"1","389696395965","7.05699","1.53162","-4.66505","0","0","0","0.0366115","-0.994825","0.0947805","-0.194521","-0.100124","-0.975775","0.980215","0.0172877","-0.19718"
"1","389713211151","6.52057","1.79984","-3.80293","0","0","0","0.0347934","-0.998451","0.0434119","-0.211201","-0.049803","-0.976173","0.976823","0.0247957","-0.212606"
"1","389729995819","6.99953","1.93394","-2.99828","0","0","0","0.028893","-0.999304","-0.0235801","-0.223996","0.0165172","-0.97445","0.974162","0.0334367","-0.223363"
"1","389746780487","8.8004","1.79984","-3.07491","0","0","0","0.0367988","-0.998959","-0.0269639","-0.230909","0.0177521","-0.972813","0.972279","0.0420245","-0.230016"
"1","389763565155","10.5055","1.39752","-3.63051","0","0","0","0.0440007","-0.998664","-0.0271086","-0.23622","0.0159653","-0.971568","0.970703","0.0491533","-0.235202"
"1","389780349822","12.3638","0.382126","-4.0903","0","0","0","0.0411329","-0.99782","-0.0516087","-0.243154","0.0401028","-0.969158","0.969115","0.0524132","-0.240975"
"1","389797103973","12.7087","-0.690735","-4.03282","0","0","0","0.0402109","-0.998259","-0.0431586","-0.247643","0.0318892","-0.968326","0.968017","0.0496252","-0.245929"
"1","389813858123","10.4097","-1.87856","-3.11322","0","0","0","0.0442755","-0.999006","0.00511244","-0.249522","-0.0160137","-0.968237","0.967356","0.0415935","-0.249983"
"1","389830123992","9.24104","-1.9935","-2.65343","0","0","0","0.0306843","-0.999524","-0.00327114","-0.252654","-0.0045897","-0.967546","0.96707","0.0305149","-0.252674"
"1","389847396942","7.11447","-2.01266","-1.6572","0","0","0","0.0171896","-0.999823","-0.00759413","-0.253618","0.00298672","-0.9673","0.967152","0.0185536","-0.253522"
"1","389864212127","6.09909","-1.80193","-0.737595","0","0","0","0.0224897","-0.998108","0.0572232","-0.250994","-0.0610415","-0.966062","0.967727","0.0073638","-0.251892"
"1","389880966278","6.5014","-0.958954","-0.335281","0","0","0","0.0173127","-0.997122","0.0738053","-0.246298","-0.0757948","-0.966226","0.969039","-0.00145006","-0.246901"
"1","389897781463","8.03407","-0.250092","-0.660965","0","0","0","0.0219723","-0.993386","0.112699","-0.239178","-0.114675","-0.96418","0.970727","-0.00576974","-0.240115"
"1","389914566131","9.37515","0.49707","-1.13992","0","0","0","0.0223852","-0.992637","0.119042","-0.23239","-0.120976","-0.96507","0.972365","-0.0060608","-0.233387"
"1","389931350799","9.91159","1.09099","-1.44646","0","0","0","0.0202856","-0.99513","0.096461","-0.226959","-0.0985455","-0.968906","0.973693","-0.00223789","-0.227853"
"1","389948165985","9.64337","1.5891","-1.73383","0","0","0","0.0393946","-0.987669","0.151517","-0.220204","-0.156488","-0.96282","0.974658","0.0045652","-0.223654"
"1","389965011688","8.89619","1.819","-1.21655","0","0","0","0.0453331","-0.989222","0.139229","-0.216625","-0.14579","-0.965308","0.975202","0.0135998","-0.2209"
"1","389981765838","7.97659","1.62741","-0.182007","0","0","0","0.0579602","-0.985978","0.156486","-0.208993","-0.16526","-0.963852","0.976198","0.0231605","-0.215641"
"1","389998550506","7.45932","0.861084","0.66095","0","0","0","0.0544526","-0.99235","0.110801","-0.201162","-0.119593","-0.97223","0.978043","0.0306515","-0.206135"
"1","390015304656","8.2065","-0.57579","1.08244","0","0","0","0.0606085","-0.988524","0.138373","-0.186132","-0.147389","-0.971407","0.980654","0.0331199","-0.192929"
"1","390032089324","9.04945","-0.978119","0.622635","0","0","0","0.0645598","-0.97674","0.204479","-0.168761","-0.212642","-0.962446","0.98354","0.0276272","-0.178564"
"1","390048904510","9.3943","-0.939789","0.124527","0","0","0","0.0564168","-0.975082","0.214551","-0.157845","-0.220901","-0.962438","0.985851","0.0204319","-0.166375"
"1","390065689178","9.93074","-0.614105","-0.373596","0","0","0","0.0551197","-0.964226","0.259289","-0.147997","-0.264705","-0.952905","0.987451","0.0141499","-0.157293"
"1","390082473846","10.9461","-0.0776672","-0.890869","0","0","0","0.0461332","-0.970667","0.235959","-0.144206","-0.240207","-0.959951","0.988472","0.010259","-0.151057"
"1","390099258514","12.019","1.26341","-1.02498","0","0","0","0.0563537","-0.948743","0.310984","-0.136015","-0.315871","-0.939003","0.989103","0.0106178","-0.146844"
"1","390116043182","13.0344","2.93018","-0.162857","0","0","0","0.0590975","-0.957378","0.282729","-0.130259","-0.288198","-0.94867","0.989717","0.0192361","-0.141739"
"1","390132797332","14.0689","3.96472","1.54224","0","0","0","0.0686099","-0.963968","0.257016","-0.116355","-0.263597","-0.95759","0.990835","0.0357949","-0.130248"
"1","390149582000","14.567","3.27502","2.67258","0","0","0","0.0845853","-0.952355","0.293028","-0.0888424","-0.300119","-0.949755","0.992448","0.054302","-0.109995"
"1","390166397186","13.3984","1.85732","2.05951","0","0","0","0.0808935","-0.980017","0.18172","-0.0739249","-0.187715","-0.979438","0.993978","0.0657965","-0.0876326"
"1","390183120819","13.4176","2.4129","-0.316116","0","0","0","0.0869904","-0.968937","0.231501","-0.0541632","-0.236639","-0.970087","0.994736","0.0718494","-0.0730661"
"1","390199966522","15.4483","1.4933","-4.91411","0","0","0","0.0979577","-0.945102","0.311747","-0.0456305","-0.31719","-0.947264","0.994144","0.0785666","-0.0741966"
"1","390216751190","15.6782","-0.230942","-6.77246","0","0","0","0.1018","-0.956116","0.274733","-0.0707307","-0.282425","-0.956678","0.992287","0.0779583","-0.0963778"
"1","390233535858","12.747","-1.18886","-7.05983","0","0","0","0.0932992","-0.974753","0.20286","-0.106257","-0.212334","-0.971403","0.989952","0.0690756","-0.123385"
"1","390250320526","8.26398","-0.441681","-6.15939","0","0","0","0.0957522","-0.964308","0.246862","-0.129978","-0.257991","-0.957364","0.986883","0.0595831","-0.150042"
"1","390267105194","5.35191","0.401291","-4.14778","0","0","0","0.105304","-0.951223","0.289977","-0.147562","-0.303316","-0.941395","0.983431","0.0563426","-0.172305"
"1","390283859344","4.56642","0.324646","-3.45808","0","0","0","0.106206","-0.958165","0.265782","-0.164367","-0.280534","-0.945666","0.980665","0.0567499","-0.187285"
"1","390300644012","4.83464","0.68866","-2.65343","0","0","0","0.118257","-0.943284","0.310211","-0.170961","-0.32708","-0.929404","0.978155","0.0568743","-0.199945"
"1","390317428680","8.37892","0.63118","-2.69174","0","0","0","0.120158","-0.947361","0.296766","-0.179556","-0.314741","-0.93204","0.976382","0.0587057","-0.207922"
"1","390334243865","9.91159","0.68866","-2.36606","0","0","0","0.120042","-0.950183","0.287648","-0.184265","-0.306033","-0.934018","0.975519","0.059118","-0.211822"
"1","390350998016","11.4634","1.20593","-2.44269","0","0","0","0.127952","-0.937951","0.322298","-0.180131","-0.341542","-0.922443","0.975285","0.0599723","-0.212655"
"1","390367782684","12.1914","1.87648","-2.99828","0","0","0","0.128085","-0.943238","0.306424","-0.181345","-0.326035","-0.927801","0.975043","0.0632694","-0.212811"
"1","390384567352","11.6741","2.33627","-3.15155","0","0","0","0.141903","-0.928767","0.342426","-0.17576","-0.36407","-0.914637","0.974152","0.0696052","-0.214902"
"1","390401321502","10.1606","2.48953","-2.42352","0","0","0","0.143826","-0.940655","0.30738","-0.180806","-0.330359","-0.926376","0.972946","0.0776608","-0.21759"
"1","390418167205","8.37892","2.25964","-1.6572","0","0","0","0.15124","-0.941377","0.301556","-0.178948","-0.326099","-0.928244","0.972165","0.0864247","-0.217777"
"1","390434921356","7.09532","1.819","-1.10161","0","0","0","0.142554","-0.964729","0.221304","-0.187547","-0.245865","-0.950987","0.971856","0.0940618","-0.215981"
"1","390451736541","6.73131","1.16762","-0.81424","0","0","0","0.146808","-0.964602","0.219068","-0.183247","-0.244156","-0.952265","0.972043","0.099657","-0.212604"
"1","390468490692","7.38269","0.976028","-1.36983","0","0","0","0.147385","-0.965919","0.212788","-0.18134","-0.237879","-0.954216","0.972313","0.102051","-0.21022"
"1","390485275360","8.2065","0.63118","-1.13992","0","0","0","0.141236","-0.973566","0.179505","-0.184573","-0.204039","-0.961406","0.972618","0.102654","-0.208512"
"1","390502121063","8.68546","0.267181","-0.62265","0","0","0","0.145101","-0.966093","0.213566","-0.176074","-0.237618","-0.955267","0.973624","0.101007","-0.204583"
"1","390518875213","8.93451","-0.192627","-0.0287476","0","0","0","0.133679","-0.974277","0.181423","-0.17485","-0.203381","-0.96336","0.975478","0.0970589","-0.19754"
"1","390535629363","8.99199","-0.59494","0.58432","0","0","0","0.127214","-0.972859","0.193292","-0.164733","-0.212891","-0.963089","0.9781","0.090677","-0.187345"
"1","390552444549","8.85788","-0.844009","0.929169","0","0","0","0.122229","-0.965003","0.232012","-0.148935","-0.248951","-0.956996","0.981264","0.0824177","-0.174152"
"1","390569229217","8.76208","-0.671585","0.52684","0","0","0","0.109165","-0.968203","0.225092","-0.138994","-0.239088","-0.960998","0.984258","0.0736206","-0.160674"
"1","390586013885","9.01114","-0.173462","-0.220322","0","0","0","0.111605","-0.942955","0.313655","-0.121009","-0.326174","-0.937533","0.986357","0.0666785","-0.150509"
"1","390602768035","9.64337","0.592865","-0.526855","0","0","0","0.0998621","-0.960594","0.259395","-0.122201","-0.270565","-0.954914","0.987469","0.0636613","-0.144405"
"1","390619583221","9.89243","0.74614","-0.660965","0","0","0","0.097841","-0.962425","0.253307","-0.118125","-0.263959","-0.957273","0.988167","0.0637386","-0.139513"
"1","390636367889","10.084","0.861084","-1.25487","0","0","0","0.09531","-0.968158","0.231487","-0.116933","-0.241824","-0.963249","0.988556","0.0647388","-0.136258"
"1","390653152557","11.0036","0.248016","-1.33151","0","0","0","0.0926835","-0.973824","0.207549","-0.118617","-0.217761","-0.968767","0.988605","0.0651699","-0.135695"
"1","390669967742","11.7508","-0.460846","-0.795074","0","0","0","0.104014","-0.935226","0.338428","-0.104413","-0.348662","-0.931414","0.98908","0.0615439","-0.133916"
"1","390686721893","11.8849","-1.43791","0.0862122","0","0","0","0.0837479","-0.967029","0.240501","-0.111799","-0.248944","-0.962044","0.990196","0.0536814","-0.128961"
"1","390703506561","12.7279","-2.08929","2.09782","0","0","0","0.077583","-0.942788","0.324241","-0.097534","-0.330839","-0.938634","0.992204","0.0411975","-0.117621"
"1","390720291229","13.2834","-1.80193","3.22816","0","0","0","0.0605212","-0.928511","0.366338","-0.0793973","-0.370326","-0.925502","0.995004","0.0269263","-0.0961338"
"1","390737075897","13.6091","-0.59494","1.86794","0","0","0","0.040685","-0.934764","0.352932","-0.0617793","-0.354902","-0.93286","0.99726","0.0161495","-0.0721883"
"1","390753860565","13.7816","0.133072","-1.00581","0","0","0","0.0333581","-0.925471","0.377347","-0.0490594","-0.378619","-0.924252","0.998239","0.0123188","-0.0580331"
"1","390770645233","15.6974","0.267181","-6.82994","0","0","0","0.036242","-0.929058","0.368155","-0.0573119","-0.369723","-0.927373","0.997698","0.0125101","-0.0666456"
"1","390787429901","14.567","0.61203","-8.51587","0","0","0","0.0506445","-0.921234","0.385698","-0.0866286","-0.38879","-0.917245","0.994953","0.0130409","-0.0994952"
"1","390804214569","12.2489","1.05267","-7.27058","0","0","0","0.0552847","-0.953321","0.296855","-0.122911","-0.301546","-0.945496","0.990877","0.0157847","-0.133845"
"1","390820938201","7.7467","1.39752","-5.3739","0","0","0","0.0580762","-0.971066","0.231644","-0.151762","-0.237926","-0.959354","0.986709","0.0205608","-0.161189"
"1","390837173553","6.65468","1.35919","-4.66505","0","0","0","0.0582661","-0.983597","0.170711","-0.174715","-0.178409","-0.968321","0.982893","0.0265944","-0.182245"
"1","390854507537","5.79256","1.20593","-3.26649","0","0","0","0.0587343","-0.989995","0.1283","-0.191785","-0.137318","-0.971783","0.979678","0.032471","-0.197932"
"1","390871261688","5.98413","1.14845","-2.36606","0","0","0","0.0708683","-0.985135","0.156481","-0.198175","-0.167653","-0.965722","0.977601","0.0374286","-0.20711"
"1","390888076873","8.32144","1.37836","-2.44269","0","0","0","0.0699982","-0.989787","0.124185","-0.204821","-0.136098","-0.969291","0.976293","0.042413","-0.212256"
"1","390904831024","10.2948","1.16762","-3.20901","0","0","0","0.0700284","-0.992826","0.0969177","-0.209877","-0.109645","-0.97156","0.975217","0.047696","-0.21605"
"1","390921127410","10.3331","-1.09306","-2.90248","0","0","0","0.0652959","-0.991718","0.110596","-0.219705","-0.122401","-0.967857","0.973379","0.0388985","-0.225878"
"1","390938430877","10.3331","-1.09306","-2.90248","0","0","0","0.0652959","-0.991718","0.110596","-0.219705","-0.122401","-0.967857","0.973379","0.0388985","-0.225878"
"1","390955246063","10.3331","-1.09306","-2.90248","0","0","0","0.0652959","-0.991718","0.110596","-0.219705","-0.122401","-0.967857","0.973379","0.0388985","-0.225878"
"1","390971450897","10.3331","-1.09306","-2.90248","0","0","0","0.0652959","-0.991718","0.110596","-0.219705","-0.122401","-0.967857","0.973379","0.0388985","-0.225878"
"1","390988784881","10.3331","-1.09306","-2.90248","0","0","0","0.0575069","-0.988239","0.141693","-0.224145","-0.151085","-0.962773","0.972858","0.0236063","-0.230197"
"1","391005050750","6.29066","-0.460846","-1.75299","0","0","0","0.0324649","-0.998012","0.0540118","-0.230833","-0.0600663","-0.971138","0.972452","0.0190602","-0.232324"
"1","391022354217","5.71591","-0.192627","-1.17824","0","0","0","0.0422161","-0.993351","0.107104","-0.229683","-0.113978","-0.966569","0.972349","0.0162047","-0.232967"
"1","391038589569","6.9229","0.0372772","-0.967499","0","0","0","0.0512389","-0.987146","0.151384","-0.226082","-0.159113","-0.961025","0.97276","0.0150166","-0.231329"
"1","391055374237","8.07239","0.305496","-1.08244","0","0","0","0.0450212","-0.990737","0.128112","-0.223644","-0.134982","-0.965279","0.973631","0.0148067","-0.227649"
"1","391072158905","8.51303","0.822769","-1.1974","0","0","0","0.0553863","-0.984107","0.168715","-0.217295","-0.176805","-0.95996","0.974533","0.0165077","-0.223634"
"1","391088943572","8.45555","1.11014","-1.06329","0","0","0","0.0585646","-0.984312","0.166433","-0.212779","-0.175197","-0.961265","0.975344","0.0208825","-0.219702"
"1","391105728240","8.28313","1.20593","-0.641815","0","0","0","0.0760667","-0.971018","0.226578","-0.202604","-0.237548","-0.950012","0.976302","0.0263585","-0.214802"
"1","391122512908","8.16818","1.18677","0.0670471","0","0","0","0.0866527","-0.961765","0.259807","-0.19134","-0.272","-0.943083","0.977691","0.0320091","-0.207594"
"1","391139297576","8.5705","1.01434","0.469376","0","0","0","0.0700323","-0.984316","0.161917","-0.187798","-0.172422","-0.966955","0.979708","0.0373105","-0.196928"
"1","391156112762","9.43263","0.439606","0.354416","0","0","0","0.0902415","-0.959039","0.268517","-0.165671","-0.280316","-0.945503","0.982044","0.0408382","-0.184181"
"1","391172897430","10.6204","-0.211777","-0.392746","0","0","0","0.0744906","-0.977684","0.196429","-0.160947","-0.206181","-0.965187","0.984148","0.0402827","-0.172714"
"1","391189743133","10.7545","0.0181122","-0.795074","0","0","0","0.0813368","-0.958766","0.272308","-0.148244","-0.281812","-0.947948","0.9856","0.0367352","-0.165053"
"1","391206466766","10.6396","0.516235","-0.507706","0","0","0","0.0743042","-0.966306","0.246437","-0.145417","-0.254977","-0.95595","0.986576","0.035195","-0.159463"
"1","391223831268","11.1952","1.14845","-0.162857","0","0","0","0.0806551","-0.952346","0.294163","-0.134061","-0.302807","-0.943576","0.987685","0.0366685","-0.152095"
"1","391240585418","11.9807","1.83815","-0.335281","0","0","0","0.0809115","-0.956683","0.279662","-0.125992","-0.288148","-0.949261","0.988726","0.0415709","-0.143849"
"1","391257400604","12.8045","2.66196","-0.00958252","0","0","0","0.0907106","-0.94566","0.312248","-0.112767","-0.321277","-0.940247","0.989472","0.0500792","-0.135782"
"1","391274124237","13.1877","2.96849","1.2357","0","0","0","0.0965465","-0.950238","0.296186","-0.10031","-0.30535","-0.946942","0.990261","0.0617134","-0.124799"
"1","391290390106","13.4176","2.27879","2.38521","0","0","0","0.102332","-0.948613","0.299437","-0.0802239","-0.307906","-0.948028","0.99151","0.0729915","-0.10761"
"1","391307174774","13.4942","1.43584","1.98288","0","0","0","0.100638","-0.952634","0.286983","-0.0604016","-0.293766","-0.953967","0.993088","0.0786712","-0.0871046"
"1","391323959442","14.4138","2.71944","-2.05952","0","0","0","0.104502","-0.929899","0.352658","-0.040945","-0.358322","-0.9327","0.993681","0.0830297","-0.0755202"
"1","391340744110","16.4637","1.37836","-7.2131","0","0","0","0.105127","-0.9732","0.204525","-0.065562","-0.212","-0.975068","0.992295","0.0890967","-0.0860918"
"1","391357528778","15.3717","-0.230942","-8.20934","0","0","0","0.114988","-0.958285","0.261664","-0.0893566","-0.272322","-0.958048","0.98934","0.0867827","-0.116943"
"1","391374832244","11.4059","-1.0739","-7.19394","0","0","0","0.110941","-0.967023","0.229256","-0.124936","-0.242421","-0.962093","0.985943","0.0780933","-0.147711"
"1","391391098113","7.53595","-1.0739","-5.68044","0","0","0","0.113304","-0.957419","0.26554","-0.147605","-0.280516","-0.948432","0.982535","0.0682658","-0.173104"
"1","391408401580","5.3136","-0.65242","-3.38144","0","0","0","0.124001","-0.933012","0.337804","-0.158388","-0.354678","-0.921475","0.97956","0.0607595","-0.191758"
"1","391425186248","4.56642","-0.422516","-2.65343","0","0","0","0.114746","-0.949681","0.291442","-0.176122","-0.308181","-0.934883","0.977658","0.0559443","-0.202623"
"1","391441452117","5.81171","-0.135147","-2.19363","0","0","0","0.119056","-0.940869","0.317162","-0.181722","-0.334686","-0.924642","0.976116","0.0524485","-0.210823"
"1","391458236785","7.65091","-0.115982","-2.51932","0","0","0","0.118674","-0.940149","0.319432","-0.186658","-0.337094","-0.922782","0.975231","0.0498861","-0.21549"
"1","391475021453","9.96906","0.707825","-2.65343","0","0","0","0.12929","-0.918512","0.373657","-0.183474","-0.392473","-0.901278","0.974485","0.0479702","-0.219266"
"1","391491806121","10.9653","1.819","-3.32397","0","0","0","0.125929","-0.931544","0.341126","-0.18959","-0.360125","-0.913436","0.973754","0.0503534","-0.221962"
"1","391508621307","11.0036","2.62364","-3.7646","0","0","0","0.131289","-0.937208","0.323116","-0.193784","-0.343912","-0.918789","0.97222","0.0580126","-0.226768"
"1","391525924774","10.1032","3.00681","-3.32397","0","0","0","0.148085","-0.927837","0.342329","-0.192473","-0.366565","-0.910266","0.970064","0.068908","-0.232866"
"1","391542709442","8.60883","2.75775","-2.63428","0","0","0","0.149956","-0.945268","0.289796","-0.200493","-0.316094","-0.927301","0.968151","0.0809525","-0.23692"
"1","391559494110","7.2869","2.02974","-2.07867","0","0","0","0.160423","-0.943697","0.289311","-0.199439","-0.318052","-0.926859","0.96669","0.0909901","-0.239233"
"1","391576309295","6.61636","1.32088","-1.44646","0","0","0","0.156228","-0.958259","0.23944","-0.206672","-0.268765","-0.940772","0.965857","0.0974896","-0.240034"
"1","391593063446","6.78879","0.74614","-1.31235","0","0","0","0.163353","-0.951478","0.260777","-0.200789","-0.290859","-0.93546","0.965919","0.100449","-0.238559"
"1","391609878631","7.78502","-0.0968323","-1.33151","0","0","0","0.153882","-0.962873","0.2218","-0.205438","-0.250746","-0.946003","0.966496","0.100007","-0.236397"
"1","391626663299","8.70461","-0.556625","-0.948334","0","0","0","0.147227","-0.964009","0.221384","-0.203575","-0.248565","-0.946981","0.967926","0.094353","-0.232844"
"1","391643447967","9.56674","-0.78653","-0.373596","0","0","0","0.146201","-0.953045","0.265198","-0.19265","-0.290376","-0.937319","0.970315","0.0859469","-0.226057"
"1","391660232635","10.084","-0.7099","-0.162857","0","0","0","0.135667","-0.9522","0.273695","-0.184495","-0.295698","-0.937297","0.973425","0.0766653","-0.215792"
"1","391677017303","9.98822","-0.288422","-0.0862122","0","0","0","0.12687","-0.949754","0.286132","-0.174717","-0.30535","-0.936074","0.976411","0.0687676","-0.204678"
"1","391693771453","9.45178","0.248016","-0.277802","0","0","0","0.107516","-0.968886","0.222936","-0.173656","-0.23909","-0.955343","0.97892","0.0640007","-0.193959"
"1","391710586639","8.95367","0.841919","-0.526855","0","0","0","0.104562","-0.968805","0.224685","-0.165695","-0.239736","-0.956594","0.980618","0.0627941","-0.185593"
"1","391727340789","9.14525","1.2251","-0.392746","0","0","0","0.111692","-0.957457","0.266085","-0.15382","-0.28119","-0.947244","0.981766","0.0648709","-0.178683"
"1","391744155975","9.79663","1.45499","-0.488541","0","0","0","0.108555","-0.965985","0.234712","-0.149397","-0.249278","-0.956839","0.9828","0.0688043","-0.171376"
"1","391760940643","11.6167","1.37836","-0.967499","0","0","0","0.102814","-0.978274","0.180026","-0.148015","-0.194017","-0.969768","0.983626","0.0730594","-0.164747"
"1","391777694793","12.383","0.956879","-1.52309","0","0","0","0.113606","-0.96314","0.243833","-0.135712","-0.258165","-0.956521","0.984213","0.0755754","-0.160039"
"1","391794479461","12.6704","-0.0010376","-1.06329","0","0","0","0.105918","-0.973709","0.201674","-0.137944","-0.215241","-0.966769","0.98476","0.0745786","-0.157115"
"1","391811294647","11.1569","-2.3192","1.79129","0","0","0","0.0824782","-0.975146","0.205639","-0.124326","-0.214798","-0.968713","0.988808","0.0543313","-0.138952"
"1","391828018280","11.1569","-2.3192","1.79129","0","0","0","0.0824782","-0.975146","0.205639","-0.124326","-0.214798","-0.968713","0.988808","0.0543313","-0.138952"
"1","391844833465","11.0419","-2.5874","3.32396","0","0","0","0.0645927","-0.971844","0.226599","-0.107145","-0.232515","-0.966673","0.992143","0.0381611","-0.119147"
"1","391861587615","12.4405","-2.39583","2.19362","0","0","0","0.0436202","-0.970862","0.235635","-0.0865507","-0.238645","-0.967242","0.995292","0.0217969","-0.0944385"
"1","391878341766","13.7049","-1.53371","0.603485","0","0","0","0.027699","-0.966106","0.256654","-0.0722473","-0.258016","-0.963436","0.997002","0.00814368","-0.0769453"
"1","391895156951","15.8315","1.30173","-7.74953","0","0","0","0.026936","-0.941266","0.33659","-0.0692191","-0.33766","-0.93872","0.997238","0.00198685","-0.0742488"
"1","391911941619","14.2797","1.34004","-8.93735","0","0","0","0.0375272","-0.963336","0.265661","-0.103621","-0.268166","-0.957784","0.993909","0.008415","-0.109885"
"1","391928787322","11.7891","1.56995","-6.67667","0","0","0","0.0433163","-0.979436","0.197051","-0.138531","-0.201219","-0.969701","0.98941","0.0147062","-0.144398"
"1","391945571990","8.5705","1.43584","-5.08653","0","0","0","0.0587703","-0.97389","0.219282","-0.159236","-0.225995","-0.961026","0.98549","0.0215622","-0.16836"
"1","391962356658","6.04161","1.41667","-3.99451","0","0","0","0.0653835","-0.977472","0.200683","-0.175798","-0.209252","-0.96193","0.982253","0.0276147","-0.185519"
"1","391979110809","5.02621","1.819","-2.82585","0","0","0","0.0718366","-0.98039","0.183505","-0.188314","-0.194003","-0.962757","0.979478","0.0346045","-0.198558"
"1","391995864959","5.33275","1.78069","-1.82962","0","0","0","0.0579484","-0.996181","0.065311","-0.202829","-0.0758047","-0.976276","0.977498","0.0433267","-0.206447"
"1","392012710662","6.98036","1.47415","-1.54225","0","0","0","0.0865052","-0.982942","0.162301","-0.197245","-0.176585","-0.964319","0.97653","0.0514055","-0.209156"
"1","392029495330","9.43263","1.18677","-2.44269","0","0","0","0.0691457","-0.99627","0.0516219","-0.205815","-0.0648788","-0.976438","0.976145","0.056892","-0.209533"
"1","392046249481","12.1148","0.861084","-3.93703","0","0","0","0.0651242","-0.997723","0.0175633","-0.211713","-0.0310148","-0.97684","0.97516","0.0598976","-0.213251"
"1","392063034149","13.0535","-0.441681","-4.43515","0","0","0","0.0788902","-0.993456","0.0825874","-0.214015","-0.0977921","-0.971923","0.97364","0.0590003","-0.220329"
"1","392079818817","12.1339","-1.66782","-3.84125","0","0","0","0.0671707","-0.995687","0.063999","-0.223679","-0.0775388","-0.971574","0.972346","0.0509461","-0.227922"
"1","392096634002","10.6013","-1.97435","-2.65343","0","0","0","0.0580175","-0.9952","0.0788063","-0.228085","-0.0900653","-0.969467","0.971911","0.0382715","-0.232215"
"1","392113388153","6.25235","0.113907","-0.833389","0","0","0","0.0255041","-0.998642","0.0454363","-0.225949","-0.0500334","-0.972854","0.973805","0.0145455","-0.226918"
"1","392130111785","6.25235","0.113907","-0.833389","0","0","0","0.0255041","-0.998642","0.0454363","-0.225949","-0.0500334","-0.972854","0.973805","0.0145455","-0.226918"
"1","392146926971","6.25235","0.113907","-0.833389","0","0","0","0.0255041","-0.998642","0.0454363","-0.225949","-0.0500334","-0.972854","0.973805","0.0145455","-0.226918"
"1","392163192840","6.55888","0.55455","-1.15909","0","0","0","0.0329156","-0.996639","0.075009","-0.22193","-0.0804644","-0.971737","0.974507","0.0153386","-0.223833"
"1","392180496307","7.80417","0.573715","-1.5614","0","0","0","0.0497034","-0.98915","0.138249","-0.217233","-0.145812","-0.965168","0.974854","0.01794","-0.222123"
"1","392197311492","9.16441","0.74614","-1.36983","0","0","0","0.0571607","-0.985326","0.16083","-0.213829","-0.169437","-0.962064","0.975197","0.0206022","-0.220376"
"1","392214126678","9.35599","0.841919","-0.910019","0","0","0","0.060799","-0.984253","0.165981","-0.208752","-0.17515","-0.962156","0.976077","0.0238492","-0.216114"
"1","392230911346","8.95367","0.918564","-0.641815","0","0","0","0.0570253","-0.988968","0.136716","-0.203507","-0.145578","-0.96819","0.977411","0.0273885","-0.209564"
"1","392247696014","8.35976","0.899399","-0.182007","0","0","0","0.0601314","-0.988587","0.138133","-0.195663","-0.147372","-0.969535","0.978826","0.031272","-0.202291"
"1","392264511199","8.07239","0.669495","0.277786","0","0","0","0.0728664","-0.978467","0.193111","-0.182441","-0.203436","-0.96194","0.980513","0.0348617","-0.193336"
"1","392281265350","8.47472","0.305496","0.277786","0","0","0","0.0721903","-0.978892","0.191206","-0.17176","-0.201044","-0.964406","0.98249","0.0367792","-0.182648"
"1","392298019500","9.26021","0.113907","-0.0670624","0","0","0","0.0718619","-0.976291","0.204186","-0.160749","-0.213376","-0.963655","0.984376","0.0364274","-0.172271"
"1","392314804168","10.199","0.075592","-0.526855","0","0","0","0.0678118","-0.977629","0.199104","-0.153047","-0.207394","-0.966211","0.98589","0.0350484","-0.163687"
"1","392331588836","11.0228","0.535385","-0.833389","0","0","0","0.0630488","-0.980489","0.18619","-0.147736","-0.193675","-0.969879","0.987015","0.0336428","-0.157064"
"1","392348404022","11.3293","1.30173","-0.910019","0","0","0","0.0767189","-0.958539","0.274441","-0.136125","-0.282745","-0.949487","0.987717","0.0354853","-0.152173"
"1","392365158172","11.4059","2.22133","-0.75676","0","0","0","0.0718697","-0.976164","0.204789","-0.135357","-0.212966","-0.967638","0.988187","0.0418243","-0.147436"
"1","392381881805","11.7125","2.79607","0.335266","0","0","0","0.0865787","-0.965305","0.246353","-0.123491","-0.255773","-0.958817","0.988562","0.0525908","-0.141351"
"1","392398666473","12.4596","2.77692","2.00203","0","0","0","0.0799613","-0.990096","0.115393","-0.119427","-0.124446","-0.985013","0.989618","0.0649818","-0.128195"
"1","392415451141","13.7241","2.0489","2.845","0","0","0","0.0933184","-0.979845","0.176622","-0.091315","-0.185071","-0.978473","0.99144","0.0751814","-0.106745"
"1","392432266326","14.4713","1.91479","1.25487","0","0","0","0.0951937","-0.97666","0.192544","-0.0675007","-0.199311","-0.977609","0.993168","0.0800653","-0.0848984"
"1","392449020477","14.7778","3.00681","-1.94456","0","0","0","0.0992344","-0.973672","0.205218","-0.0553526","-0.211318","-0.975849","0.993523","0.0854784","-0.0748654"
"1","392465805145","15.6016","2.25964","-5.79539","0","0","0","0.107669","-0.977467","0.181565","-0.0642409","-0.189085","-0.979857","0.992109","0.093836","-0.0831519"
"1","392482589813","15.3909","0.228867","-5.68044","0","0","0","0.108898","-0.98401","0.140942","-0.0918811","-0.151142","-0.984233","0.989797","0.0942312","-0.106871"
"1","392499404998","11.8849","-0.556625","-4.51178","0","0","0","0.102897","-0.987088","0.122761","-0.113227","-0.134237","-0.984459","0.988227","0.0873978","-0.125577"
"1","392516189666","7.91913","-0.518311","-3.01744","0","0","0","0.102122","-0.981416","0.16246","-0.12358","-0.174565","-0.97686","0.987066","0.079682","-0.13911"
"1","392532974334","5.10286","-0.135147","-1.35066","0","0","0","0.0990294","-0.981005","0.166802","-0.132006","-0.179096","-0.974935","0.98629","0.0745285","-0.147234"
"1","392549759002","3.76178","-0.307571","-1.46562","0","0","0","0.100943","-0.975436","0.195793","-0.1325","-0.208226","-0.969064","0.98603","0.071878","-0.150264"
"1","392566513153","4.83464","-0.805695","-3.09407","0","0","0","0.108226","-0.958323","0.264393","-0.132493","-0.277487","-0.95155","0.985258","0.0679521","-0.157002"
"1","392583358856","7.65091","-0.57579","-3.95619","0","0","0","0.101772","-0.96571","0.238844","-0.149258","-0.252196","-0.956096","0.983547","0.0616538","-0.169807"
"1","392600204559","9.94991","-0.288422","-4.28189","0","0","0","0.104656","-0.957607","0.268394","-0.161315","-0.282648","-0.945562","0.981338","0.055663","-0.184057"
"1","392616928192","11.5209","1.03351","-3.36229","0","0","0","0.103934","-0.958232","0.266437","-0.174122","-0.281281","-0.943696","0.979224","0.0516898","-0.196084"
"1","392633712860","11.4634","1.99142","-3.03659","0","0","0","0.100069","-0.969951","0.221767","-0.183167","-0.237034","-0.954078","0.977975","0.0548533","-0.201383"
"1","392650528045","10.6779","3.14091","-2.65343","0","0","0","0.112158","-0.965543","0.234833","-0.182806","-0.25234","-0.950214","0.97673","0.0636453","-0.204809"
"1","392667282196","9.72","3.38998","-2.09784","0","0","0","0.118412","-0.97369","0.194695","-0.185842","-0.214342","-0.958916","0.975419","0.0773649","-0.206333"
"1","392684097381","8.76208","2.43207","-1.59972","0","0","0","0.132022","-0.971422","0.197253","-0.182471","-0.219411","-0.958417","0.974307","0.090539","-0.206224"
"1","392700851531","7.97659","1.32088","-1.00581","0","0","0","0.121934","-0.986685","0.107634","-0.191098","-0.129752","-0.972957","0.973968","0.0980677","-0.204375"
"1","392717666717","7.76585","0.516235","-0.737595","0","0","0","0.125222","-0.985152","0.117453","-0.185694","-0.139565","-0.972645","0.974596","0.0999858","-0.200414"
"1","392734451385","7.89996","-0.0010376","-0.948334","0","0","0","0.118528","-0.98827","0.096303","-0.184288","-0.117196","-0.97586","0.975699","0.0979196","-0.196017"
"1","392751236053","8.16818","-0.671585","-1.15909","0","0","0","0.121259","-0.982469","0.141604","-0.176166","-0.161692","-0.97099","0.976863","0.0927958","-0.192684"
"1","392768051238","8.28313","-0.614105","-0.603485","0","0","0","0.110666","-0.984945","0.132804","-0.176011","-0.150936","-0.972748","0.978148","0.084275","-0.190064"
"1","392784805389","8.05322","0.113907","-0.0670624","0","0","0","0.114856","-0.973098","0.199721","-0.163463","-0.216825","-0.962428","0.979841","0.0778939","-0.18397"
"1","392801590057","7.93828","0.286331","0.335266","0","0","0","0.0975715","-0.987664","0.122476","-0.164346","-0.137364","-0.976791","0.981565","0.0751785","-0.175722"
"1","392818313690","7.84248","0.477921","0.603485","0","0","0","0.107813","-0.972318","0.207303","-0.145675","-0.221719","-0.964168","0.98344","0.073751","-0.165547"
"1","392835159393","8.37892","0.61203","0.239471","0","0","0","0.0875345","-0.992373","0.0868009","-0.147217","-0.0990656","-0.984131","0.985223","0.0733668","-0.154766"
"1","392851944061","9.1261","0.937714","-0.431061","0","0","0","0.0925029","-0.987832","0.125024","-0.135526","-0.136885","-0.981272","0.986446","0.0738265","-0.146539"
"1","392868698211","9.8158","1.2251","-0.890869","0","0","0","0.0920094","-0.989403","0.112319","-0.131686","-0.123897","-0.983518","0.987012","0.0757021","-0.14169"
"1","392885482879","10.1798","0.976028","-1.13992","0","0","0","0.102076","-0.979548","0.173399","-0.122514","-0.185361","-0.975003","0.987204","0.0782802","-0.138929"
"1","392902298065","10.448","0.535385","-1.40814","0","0","0","0.0924496","-0.990996","0.0968494","-0.128569","-0.108332","-0.985766","0.987382","0.0786818","-0.137427"
"1","392919082733","10.9078","-0.0202026","-0.929184","0","0","0","0.089172","-0.991773","0.0918392","-0.128877","-0.10292","-0.986305","0.987643","0.0761149","-0.136994"
"1","392935867401","10.9845","-0.63327","-0.162857","0","0","0","0.0920719","-0.982193","0.163765","-0.119291","-0.174159","-0.977465","0.988581","0.0704614","-0.133202"
"1","392952621551","11.4442","-1.3038","1.04413","0","0","0","0.0801285","-0.985462","0.149817","-0.113442","-0.15834","-0.980846","0.990308","0.0615982","-0.12448"
"1","392969406219","12.4213","-1.61034","1.96371","0","0","0","0.0642972","-0.988738","0.135142","-0.101609","-0.141205","-0.984752","0.992744","0.0495851","-0.109544"
"1","392986221405","13.0919","-1.11221","2.44267","0","0","0","0.0555235","-0.977141","0.205213","-0.0803417","-0.209236","-0.974559","0.99522","0.0376238","-0.0901227"
"1","393002975555","13.7241","-0.518311","1.0058","0","0","0","0.041041","-0.985501","0.164632","-0.0664475","-0.167098","-0.983699","0.996946","0.0294326","-0.0723419"
"1","393019821258","13.6474","0.133072","-0.852554","0","0","0","0.0420106","-0.957823","0.284273","-0.0522947","-0.286242","-0.956729","0.997748","0.0253268","-0.0621142"
"1","393036544891","15.6974","-0.326736","-5.33559","0","0","0","0.0373161","-0.978051","0.204995","-0.0614892","-0.206997","-0.976407","0.99741","0.0238308","-0.0678639"
"1","393053329559","14.5862","-0.211777","-6.04445","0","0","0","0.0399451","-0.974391","0.221285","-0.0848934","-0.223971","-0.970891","0.995589","0.0199967","-0.0916658"
"1","393070114227","11.9998","0.286331","-5.54633","0","0","0","0.0383525","-0.983273","0.178054","-0.109498","-0.181248","-0.977323","0.993247","0.0179863","-0.114617"
"1","393086898895","8.91536","0.803604","-4.6842","0","0","0","0.0358022","-0.991672","0.12371","-0.131829","-0.127394","-0.983052","0.990626","0.0188868","-0.135292"
"1","393103714080","6.42477","1.32088","-4.10945","0","0","0","0.0385323","-0.993998","0.102384","-0.149204","-0.107034","-0.982996","0.988055","0.022601","-0.152433"
"1","393120468231","5.42854","1.64658","-3.24733","0","0","0","0.0439381","-0.995444","0.0846168","-0.164651","-0.0907558","-0.982168","0.985373","0.0292223","-0.167889"
"1","393137283416","5.5818","1.60826","-2.51932","0","0","0","0.0499522","-0.996403","0.0684515","-0.175596","-0.0762312","-0.981506","0.983194","0.0370086","-0.178772"
"1","393154037567","7.09532","1.64658","-2.97913","0","0","0","0.0460485","-0.998933","0.00365582","-0.18645","-0.0121902","-0.982389","0.981385","0.0445559","-0.186812"
"1","393170852752","9.08778","1.62741","-3.34312","0","0","0","0.0635555","-0.996456","0.0551066","-0.191976","-0.0663941","-0.979151","0.97934","0.0516513","-0.195515"
"1","393187667938","10.6971","0.937714","-3.41975","0","0","0","0.0599366","-0.998173","0.00759388","-0.202317","-0.0195973","-0.979124","0.977484","0.057149","-0.203122"
"1","393204422088","12.2297","-0.844009","-3.05576","0","0","0","0.062303","-0.997746","0.0249325","-0.206443","-0.0373239","-0.977746","0.976473","0.0557693","-0.208303"
"1","393221176238","12.2681","-1.82108","-2.84502","0","0","0","0.0617331","-0.995762","0.0681719","-0.206593","-0.0795711","-0.975186","0.976477","0.0461174","-0.21063"
"1","393237991424","11.3676","-1.87856","-2.74922","0","0","0","0.0255152","-0.998953","-0.0379837","-0.21317","0.0316853","-0.976501","0.976682","0.0330127","-0.212138"
"1","393254745574","9.87326","-1.20801","-2.481","0","0","0","0.0471795","-0.992384","0.113792","-0.209611","-0.121218","-0.970242","0.976646","0.0219236","-0.213734"
"1","393271560760","8.35976","-0.307571","-2.07867","0","0","0","0.0360468","-0.995177","0.0912339","-0.213115","-0.0968482","-0.972215","0.976362","0.0156019","-0.215578"
"1","393288345428","7.2869","0.190536","-1.33151","0","0","0","0.0391295","-0.992819","0.113042","-0.213239","-0.11882","-0.969748","0.976216","0.0138407","-0.216357"
"1","393305130096","6.84625","0.592865","-0.507706","0","0","0","0.0422256","-0.991442","0.123534","-0.210442","-0.129696","-0.968965","0.976694","0.0149185","-0.214117"
"1","393321914764","7.26775","0.822769","0.0287323","0","0","0","0.0528936","-0.985023","0.164109","-0.201887","-0.171493","-0.964278","0.977979","0.0178726","-0.207935"
"1","393338699432","8.18733","0.899399","-0.143692","0","0","0","0.0458352","-0.992116","0.11664","-0.194923","-0.123401","-0.973025","0.979747","0.0218629","-0.199042"
"1","393355484100","8.97282","0.937714","-0.526855","0","0","0","0.0471574","-0.993226","0.106203","-0.187117","-0.113223","-0.975791","0.981205","0.0261433","-0.191188"
"1","393372238250","8.85788","0.841919","-0.469391","0","0","0","0.0397557","-0.998038","0.0483782","-0.182607","-0.054858","-0.981654","0.982382","0.0301922","-0.18443"
"1","393389022918","8.53218","0.74614","-0.316116","0","0","0","0.0515958","-0.993832","0.0981589","-0.173434","-0.105713","-0.979155","0.983493","0.0334961","-0.177819"
"1","393405746551","8.45555","0.477921","-0.0862122","0","0","0","0.0530484","-0.993882","0.0968778","-0.166432","-0.104457","-0.980504","0.984625","0.0358906","-0.170955"
"1","393422561737","8.5705","-0.0585175","-0.0862122","0","0","0","0.0521952","-0.994169","0.0943575","-0.15879","-0.101546","-0.982076","0.985932","0.0362767","-0.163164"
"1","393439376922","8.62798","-0.59494","-0.0670624","0","0","0","0.0494081","-0.993704","0.100556","-0.151223","-0.106961","-0.982696","0.987264","0.0333468","-0.155556"
"1","393456192108","9.01114","-0.882324","-0.182007","0","0","0","0.0473209","-0.990302","0.130624","-0.142937","-0.136138","-0.980324","0.9886","0.0277188","-0.147993"
"1","393472946258","10.0457","-0.537476","-0.68013","0","0","0","0.0402812","-0.990221","0.133568","-0.137253","-0.137893","-0.980891","0.989717","0.0211789","-0.141465"
"1","393489761444","11.4634","0.68866","-1.67636","0","0","0","0.0494342","-0.971655","0.231178","-0.129789","-0.235748","-0.963109","0.990309","0.0176061","-0.137764"
"1","393506546112","11.9041","1.74237","-2.02121","0","0","0","0.0475631","-0.981403","0.185973","-0.132005","-0.190727","-0.972727","0.990107","0.0217164","-0.138622"
"1","393523361297","12.3447","2.52785","-2.07867","0","0","0","0.059895","-0.977262","0.203399","-0.131508","-0.209714","-0.968879","0.989504","0.0312824","-0.141079"
"1","393540084930","12.8236","3.00681","-1.06329","0","0","0","0.0753084","-0.971741","0.223713","-0.128135","-0.231921","-0.964258","0.988893","0.0439513","-0.141979"
"1","393556869598","12.9769","2.77692","0.814224","0","0","0","0.0839841","-0.976131","0.200289","-0.12088","-0.209495","-0.970309","0.989108","0.0572797","-0.135589"
"1","393573684783","12.4596","2.01057","2.53847","0","0","0","0.0898512","-0.97729","0.191914","-0.103867","-0.200837","-0.974103","0.990524","0.0675909","-0.119554"
"1","393590438934","11.1186","1.2251","3.61133","0","0","0","0.0816894","-0.992779","0.0878484","-0.0895655","-0.0950989","-0.99143","0.992625","0.0731211","-0.0966872"
"1","393607254119","10.1223","0.477921","3.72629","0","0","0","0.0896139","-0.967941","0.234647","-0.0515095","-0.239784","-0.969459","0.994644","0.0747904","-0.0713461"
"1","393624069305","10.6971","0.248016","2.17445","0","0","0","0.0809062","-0.976836","0.198103","-0.0335806","-0.201313","-0.978951","0.996156","0.0725508","-0.0490902"
"1","393640884490","14.6628","1.47415","-4.35852","0","0","0","0.0793042","-0.975338","0.205978","-0.0267191","-0.208634","-0.977629","0.996492","0.0720265","-0.0426057"
"1","393657638641","16.8852","0.976028","-9.32051","0","0","0","0.0887195","-0.961166","0.261322","-0.0466992","-0.266082","-0.962819","0.994961","0.0732173","-0.0684923"
"1","393674392791","13.7816","0.861084","-9.03314","0","0","0","0.0866523","-0.986479","0.139104","-0.0986807","-0.147441","-0.984136","0.991339","0.0715508","-0.110123"
"1","393690628143","8.62798","0.420441","-6.42761","0","0","0","0.0996196","-0.974102","0.202982","-0.126792","-0.214761","-0.968401","0.986914","0.0707351","-0.144903"
"1","393707931610","5.37106","-0.0393524","-4.12862","0","0","0","0.102855","-0.97433","0.200253","-0.150572","-0.214251","-0.965103","0.983234","0.0691127","-0.168744"
"1","393724746795","4.64305","-0.365051","-1.73383","0","0","0","0.108588","-0.96688","0.230982","-0.160541","-0.246362","-0.955789","0.981038","0.0667052","-0.181975"
"1","393741500946","6.13741","-0.499161","-1.27403","0","0","0","0.100941","-0.973397","0.205692","-0.167502","-0.220425","-0.960914","0.980691","0.0625412","-0.185296"
"1","393758285613","8.51303","-0.72905","-2.30858","0","0","0","0.103448","-0.963295","0.247713","-0.165477","-0.262247","-0.950707","0.980773","0.0573583","-0.186532"
"1","393774520965","11.0611","-0.65242","-3.22818","0","0","0","0.102697","-0.955159","0.277711","-0.167809","-0.291822","-0.941637","0.980456","0.0501007","-0.190254"
"1","393791838988","12.1531","0.113907","-3.70714","0","0","0","0.0924152","-0.965442","0.243683","-0.179049","-0.256853","-0.94972","0.97949","0.0441373","-0.196599"
"1","393808654174","11.7316","1.2251","-3.63051","0","0","0","0.0969158","-0.959794","0.263445","-0.18387","-0.2774","-0.942996","0.978161","0.0429516","-0.203362"
"1","393825377807","10.2756","2.22133","-3.05576","0","0","0","0.104232","-0.957946","0.267347","-0.187611","-0.282923","-0.940615","0.976697","0.0478848","-0.209211"
"1","393842223510","8.64714","2.96849","-2.00204","0","0","0","0.116018","-0.955271","0.272025","-0.187465","-0.290013","-0.938483","0.975396","0.057886","-0.212726"
"1","393858947143","7.44017","3.52408","-1.25487","0","0","0","0.118655","-0.968901","0.217145","-0.190308","-0.236827","-0.952731","0.974528","0.0717221","-0.21249"
"1","393875731811","6.5972","3.46661","-1.12076","0","0","0","0.123885","-0.978821","0.162981","-0.191685","-0.184758","-0.963909","0.973606","0.0881729","-0.210514"
"1","393892485961","6.67383","2.52785","-1.48477","0","0","0","0.123279","-0.988467","0.0879482","-0.197495","-0.111289","-0.973966","0.972521","0.102701","-0.208937"
"1","393909270629","7.21027","1.64658","-1.84879","0","0","0","0.139069","-0.982859","0.121031","-0.192328","-0.146698","-0.970304","0.971427","0.111661","-0.209433"
"1","393926085815","8.51303","-0.192627","-1.12076","0","0","0","0.121925","-0.992073","0.0304272","-0.204218","-0.0550748","-0.977375","0.971303","0.112953","-0.209314"
"1","393942870483","9.26021","-1.28465","-0.775909","0","0","0","0.11865","-0.991297","0.0570354","-0.197451","-0.0798492","-0.977055","0.973106","0.104666","-0.205207"
"1","393959685668","9.98822","-1.93602","-0.182007","0","0","0","0.121737","-0.981022","0.150918","-0.181491","-0.171486","-0.968325","0.975828","0.0904913","-0.198923"
"1","393975921020","9.66252","-1.72528","-0.00958252","0","0","0","0.0956256","-0.98977","0.105884","-0.179959","-0.121809","-0.976103","0.979015","0.0742856","-0.189767"
"1","393993255004","8.95367","0.152222","-0.526855","0","0","0","0.0826716","-0.982239","0.168437","-0.158391","-0.179818","-0.970864","0.983909","0.053584","-0.170444"
"1","394010009154","8.95367","0.152222","-0.526855","0","0","0","0.0826716","-0.982239","0.168437","-0.158391","-0.179818","-0.970864","0.983909","0.053584","-0.170444"
"1","394026275024","9.14525","0.49707","-0.641815","0","0","0","0.0733629","-0.988008","0.135862","-0.155261","-0.145882","-0.977043","0.985146","0.0505846","-0.164102"
"1","394043639526","9.70084","1.1293","-0.660965","0","0","0","0.0707031","-0.99071","0.116166","-0.151479","-0.125771","-0.980426","0.985929","0.0517225","-0.158964"
"1","394060424194","10.4289","1.37836","-0.852554","0","0","0","0.0796845","-0.984816","0.154234","-0.142824","-0.16441","-0.975997","0.986535","0.0557435","-0.153756"
"1","394077208861","11.0419","0.803604","-1.08244","0","0","0","0.0827708","-0.984855","0.152345","-0.138497","-0.162754","-0.976898","0.986898","0.0597593","-0.149871"
"1","394093993529","11.8083","-0.192627","-0.871704","0","0","0","0.0797239","-0.987355","0.137017","-0.136717","-0.146986","-0.979645","0.987397","0.0593685","-0.146707"
"1","394110778197","12.1531","-1.0739","-0.201172","0","0","0","0.0641839","-0.995073","0.0755638","-0.136404","-0.083757","-0.987106","0.988572","0.0530491","-0.141108"
"1","394127532348","12.1148","-1.20801","0.66095","0","0","0","0.0620495","-0.988048","0.141105","-0.12432","-0.147928","-0.981153","0.9903","0.0433378","-0.132013"
"1","394144347533","12.0765","-1.09306","1.71466","0","0","0","0.0516801","-0.987265","0.150455","-0.112018","-0.155436","-0.981474","0.992361","0.033869","-0.118624"
"1","394161101684","11.8657","-0.767365","2.65341","0","0","0","0.0407642","-0.988258","0.147258","-0.095316","-0.150555","-0.983996","0.994612","0.0260757","-0.100334"
"1","394177916869","12.383","-0.556625","1.9254","0","0","0","0.0379578","-0.974088","0.222963","-0.0734188","-0.225239","-0.971533","0.996579","0.0205076","-0.0800659"
"1","394194701537","13.1302","-0.384201","0.910019","0","0","0","0.0301271","-0.974784","0.221106","-0.0591543","-0.222557","-0.973123","0.997794","0.016238","-0.0643677"
"1","394211486205","16.5978","0.152222","-5.48886","0","0","0","0.0222288","-0.988976","0.146395","-0.0578495","-0.147458","-0.987375","0.998078","0.0134793","-0.0604896"
"1","394228240356","15.3717","0.0564423","-6.84909","0","0","0","0.0250744","-0.989209","0.14435","-0.0831074","-0.145958","-0.985794","0.996225","0.0127216","-0.0858705"
"1","394245055541","12.4022","0.477921","-6.33182","0","0","0","0.0283089","-0.989736","0.140074","-0.110469","-0.142369","-0.98363","0.993476","0.0123716","-0.113366"
"1","394261840209","8.89619","0.669495","-5.54633","0","0","0","0.0388491","-0.983297","0.177813","-0.132301","-0.181442","-0.974461","0.990448","0.014332","-0.13714"
"1","394278655395","6.09909","1.16762","-4.79916","0","0","0","0.0368811","-0.991996","0.120763","-0.154817","-0.125058","-0.979996","0.987254","0.0174472","-0.158191"
"1","394295409545","4.79633","1.4933","-3.59218","0","0","0","0.0320065","-0.998423","0.0461186","-0.174945","-0.0510261","-0.983255","0.984058","0.0234023","-0.176302"
"1","394312163695","5.2178","1.51247","-2.71091","0","0","0","0.0470051","-0.99545","0.0828884","-0.185592","-0.0902386","-0.978475","0.981502","0.0306099","-0.188989"
"1","394328978881","6.8271","1.68489","-2.69174","0","0","0","0.0506011","-0.996978","0.0589505","-0.194471","-0.0677322","-0.978567","0.979602","0.0380524","-0.197311"
"1","394345763549","8.99199","1.87648","-2.86417","0","0","0","0.0492228","-0.998728","0.0109807","-0.202989","-0.0207678","-0.978961","0.977943","0.0459582","-0.203753"
"1","394362548217","11.3868","1.20593","-3.01744","0","0","0","0.0497196","-0.998529","-0.0216169","-0.209138","0.0107551","-0.977827","0.976621","0.053138","-0.208295"
"1","394379302367","12.1531","-0.0968323","-3.13239","0","0","0","0.0472877","-0.998077","-0.0400773","-0.213254","0.0291097","-0.976563","0.975852","0.054726","-0.211467"
"1","394396117553","11.8274","-1.05475","-2.95996","0","0","0","0.0475261","-0.99878","-0.0133816","-0.2145","0.00287926","-0.97672","0.975567","0.0492901","-0.214101"
"1","394412871703","10.6396","-1.26549","-2.88333","0","0","0","0.0393266","-0.999192","-0.00835995","-0.216476","-0.000351801","-0.976288","0.975496","0.0402038","-0.216314"
"1","394429656371","9.0303","-1.01643","-2.59595","0","0","0","0.0452846","-0.99728","0.0581503","-0.216893","-0.0666368","-0.973918","0.975144","0.0314911","-0.219321"
"1","394446471557","7.78502","-0.537476","-1.86794","0","0","0","0.0379802","-0.997814","0.0540831","-0.220163","-0.0611478","-0.973545","0.974724","0.0250683","-0.222004"
"1","394463225707","7.36353","-0.0393524","-1.17824","0","0","0","0.0360728","-0.997465","0.0613412","-0.219986","-0.0678012","-0.973144","0.974836","0.0216097","-0.221875"
"1","394480040893","7.49763","0.49707","-0.81424","0","0","0","0.0315151","-0.998521","0.0442943","-0.21744","-0.0501042","-0.974787","0.975565","0.0210892","-0.218698"
"1","394496825561","7.84248","1.05267","-0.526855","0","0","0","0.036082","-0.997873","0.0542891","-0.212324","-0.060739","-0.97531","0.976533","0.0236643","-0.214064"
"1","394513610229","8.5705","0.784454","-0.546021","0","0","0","0.0456814","-0.995749","0.0799844","-0.204297","-0.0876881","-0.974974","0.977843","0.0281976","-0.207434"
"1","394530394897","9.04945","0.49707","-0.62265","0","0","0","0.0475913","-0.995708","0.0793818","-0.19736","-0.0872787","-0.976438","0.979175","0.0308032","-0.200667"
"1","394547149047","9.0303","0.55455","-0.56517","0","0","0","0.0538997","-0.992724","0.107675","-0.189231","-0.116032","-0.975053","0.980452","0.0321797","-0.194108"
"1","394563964233","8.87703","0.68866","-0.277802","0","0","0","0.0474483","-0.996536","0.0682986","-0.184291","-0.0759355","-0.979934","0.981726","0.0339094","-0.187255"
"1","394580718383","8.95367","0.68866","0.181992","0","0","0","0.0569686","-0.992091","0.111849","-0.173279","-0.120156","-0.977516","0.983224","0.0363065","-0.178754"
"1","394597503051","9.1261","0.573715","0.335266","0","0","0","0.0550931","-0.993893","0.0956107","-0.163684","-0.103451","-0.981074","0.984973","0.0384005","-0.168383"
"1","394614318236","9.50926","0.382126","0.239471","0","0","0","0.0601481","-0.989937","0.128087","-0.150818","-0.135859","-0.979181","0.98673","0.039578","-0.157472"
"1","394631102904","9.89243","0.113907","-0.0862122","0","0","0","0.0547165","-0.993302","0.101765","-0.142824","-0.108656","-0.983766","0.988234","0.0392937","-0.147812"
"1","394647887572","10.199","0.228867","-0.201172","0","0","0","0.0575856","-0.988364","0.140786","-0.133331","-0.14737","-0.980054","0.989397","0.0376659","-0.140266"
"1","394664672240","10.3714","0.573715","-0.373596","0","0","0","0.0626114","-0.979328","0.192342","-0.123588","-0.198845","-0.972207","0.990356","0.0371","-0.133483"
"1","394681426391","10.5438","1.26341","-0.62265","0","0","0","0.0620533","-0.981379","0.181781","-0.118784","-0.188099","-0.97494","0.990979","0.0389055","-0.128245"
"1","394698241576","10.927","2.37459","-0.584335","0","0","0","0.0560579","-0.994675","0.0864828","-0.119766","-0.0926927","-0.988466","0.991218","0.0450536","-0.124324"
"1","394714965209","11.8274","3.25587","0.469376","0","0","0","0.0728526","-0.988213","0.134642","-0.109664","-0.14212","-0.983756","0.991295","0.0569037","-0.118726"
"1","394731810912","12.9769","3.1026","1.71466","0","0","0","0.0809623","-0.992812","0.0881466","-0.0994691","-0.0960435","-0.990395","0.991741","0.0714168","-0.10653"
"1","394748565063","13.5708","1.83815","2.42352","0","0","0","0.0874693","-0.994392","0.0594407","-0.0831417","-0.0667485","-0.9943","0.992692","0.0820287","-0.0885139"
"1","394765349731","13.3984","0.324646","2.90248","0","0","0","0.088453","-0.994177","0.0615502","-0.0625437","-0.0672138","-0.995776","0.994115","0.0842298","-0.0681247"
"1","394782195434","13.4367","-0.0968323","1.42729","0","0","0","0.0835975","-0.990539","0.108831","-0.0395617","-0.112427","-0.992872","0.995714","0.0786961","-0.048586"
"1","394798919067","14.7203","0.477921","-2.44269","0","0","0","0.0786095","-0.987742","0.134853","-0.0302438","-0.137572","-0.99003","0.996447","0.0737473","-0.0406875"
"1","394815734252","16.0806","-0.365051","-7.51964","0","0","0","0.0773869","-0.985383","0.151759","-0.0454965","-0.155547","-0.98678","0.995963","0.0694594","-0.0568688"
"1","394832457885","11.3676","-0.0968323","-6.94489","0","0","0","0.0801311","-0.972363","0.219292","-0.07406","-0.225199","-0.971494","0.994029","0.0616061","-0.0900586"
"1","394848754272","8.78125","0.113907","-7.09814","0","0","0","0.076502","-0.981996","0.172718","-0.107989","-0.180367","-0.977653","0.991204","0.0561408","-0.119843"
"1","394866027221","5.81171","0.420441","-4.32021","0","0","0","0.0772758","-0.985033","0.154071","-0.136121","-0.16351","-0.977106","0.987674","0.0545343","-0.146719"
"1","394882811889","4.33652","0.822769","-3.41975","0","0","0","0.0844368","-0.980648","0.176637","-0.149846","-0.187751","-0.970719","0.985097","0.0554961","-0.162799"
"1","394899596557","5.23695","0.976028","-3.26649","0","0","0","0.0995742","-0.967228","0.233572","-0.157226","-0.247084","-0.956154","0.98253","0.0584846","-0.176677"
"1","394916381225","7.42101","0.784454","-3.36229","0","0","0","0.0902882","-0.984952","0.147369","-0.176487","-0.161456","-0.970971","0.980153","0.0616584","-0.188409"
"1","394933165893","9.91159","0.305496","-2.38521","0","0","0","0.0984248","-0.979204","0.177403","-0.182396","-0.192999","-0.964097","0.978287","0.0625335","-0.197598"
"1","394950042113","11.3101","0.401291","-2.28943","0","0","0","0.10145","-0.974407","0.200598","-0.181943","-0.21641","-0.959199","0.978062","0.0608135","-0.199241"
"1","394966796264","11.4442","0.458755","-2.59595","0","0","0","0.106883","-0.965518","0.237384","-0.178728","-0.25352","-0.950675","0.978076","0.0591837","-0.199662"
"1","394983580932","9.96906","0.49707","-2.99828","0","0","0","0.108085","-0.963162","0.246243","-0.180359","-0.262582","-0.947904","0.977644","0.0580418","-0.202096"
"1","395000335082","8.47472","0.49707","-2.59595","0","0","0","0.105865","-0.967359","0.230237","-0.187319","-0.246793","-0.950792","0.976578","0.0575274","-0.207331"
"1","395017119750","7.5168","0.535385","-1.63805","0","0","0","0.10048","-0.974852","0.198914","-0.193894","-0.215279","-0.95711","0.975863","0.0576027","-0.210649"
"1","395033934936","7.32521","0.55455","-1.15909","0","0","0","0.0989848","-0.976939","0.189191","-0.194331","-0.205442","-0.959182","0.975929","0.0581789","-0.210185"
"1","395050719604","7.63174","0.899399","-1.48477","0","0","0","0.094423","-0.982023","0.163447","-0.194678","-0.179225","-0.964354","0.976312","0.0592376","-0.208101"
"1","395067473754","8.14902","1.11014","-1.90625","0","0","0","0.109967","-0.967372","0.228253","-0.18677","-0.245666","-0.951191","0.97623","0.0619687","-0.207691"
"1","395084258422","8.97282","1.24425","-1.98289","0","0","0","0.100037","-0.982158","0.159245","-0.194546","-0.176267","-0.964926","0.975779","0.0655475","-0.208708"
"1","395100524291","9.37515","1.07182","-1.75299","0","0","0","0.107567","-0.977994","0.178765","-0.192012","-0.19686","-0.961446","0.97548","0.0690949","-0.208962"
"1","395117858276","9.64337","0.401291","-1.31235","0","0","0","0.104323","-0.982229","0.156021","-0.192377","-0.173844","-0.9658","0.97576","0.0707403","-0.207094"
"1","395134612426","10.084","-0.499161","-0.795074","0","0","0","0.0930095","-0.988733","0.117283","-0.192435","-0.133424","-0.972197","0.976892","0.0678541","-0.202677"
"1","395151427611","10.084","-0.844009","-0.354431","0","0","0","0.100209","-0.974515","0.200694","-0.17802","-0.216015","-0.960024","0.978911","0.0604759","-0.19513"
"1","395168212279","9.52841","-0.614105","-0.143692","0","0","0","0.0965402","-0.966875","0.236291","-0.167603","-0.249801","-0.953682","0.981116","0.0524656","-0.186167"
"1","395184966430","8.81956","-0.0968323","-0.0287476","0","0","0","0.0870699","-0.970096","0.226567","-0.160993","-0.238144","-0.957794","0.983107","0.0469193","-0.176914"
"1","395201781615","8.32144","0.420441","0.201157","0","0","0","0.0804333","-0.973826","0.212589","-0.154048","-0.222862","-0.962601","0.984784","0.0446763","-0.167942"
"1","395217986449","8.85788","1.43584","0.0287323","0","0","0","0.0902607","-0.95428","0.284961","-0.138281","-0.295366","-0.945324","0.986271","0.0459208","-0.158619"
"1","395235350951","9.96906","1.62741","-0.833389","0","0","0","0.0819918","-0.976753","0.198071","-0.137174","-0.207908","-0.968482","0.987148","0.0522374","-0.151032"
"1","395252135619","11.176","1.09099","-1.77214","0","0","0","0.0806121","-0.985187","0.151352","-0.137515","-0.161387","-0.977263","0.987214","0.057966","-0.148488"
"1","395268920287","11.8657","0.0372772","-1.46562","0","0","0","0.081299","-0.985821","0.14679","-0.138029","-0.156994","-0.977906","0.987086","0.0592415","-0.148836"
"1","395285735473","12.2681","-1.01643","-0.833389","0","0","0","0.082055","-0.978121","0.191169","-0.132779","-0.200835","-0.970585","0.987743","0.0542582","-0.146354"
"1","395302459106","12.9003","-1.78276","0.354416","0","0","0","0.0693401","-0.980677","0.182934","-0.129098","-0.190654","-0.973131","0.989205","0.0438607","-0.139823"
"1","395319243774","13.2068","-1.91687","1.82961","0","0","0","0.0631576","-0.963129","0.261521","-0.113733","-0.267283","-0.956883","0.991502","0.0306908","-0.126421"
"1","395336058959","13.3218","-1.3996","2.92163","0","0","0","0.0442417","-0.968493","0.245078","-0.0982019","-0.248346","-0.963681","0.994183","0.0185677","-0.106095"
"1","395352843627","13.5325","-0.518311","2.23193","0","0","0","0.0305379","-0.971164","0.236447","-0.0786056","-0.238158","-0.96804","0.996438","0.0109758","-0.0836118"
"1","395369628295","14.0498","0.133072","-1.27403","0","0","0","0.0233597","-0.976025","0.216401","-0.0650446","-0.217485","-0.973894","0.997609","0.00867416","-0.0685656"
"1","395386382445","15.2951","-0.805695","-5.98697","0","0","0","0.0219239","-0.9819","0.188126","-0.0727942","-0.18924","-0.979229","0.997106","0.007774","-0.0756255"
"1","395403167113","13.7241","-0.63327","-7.50047","0","0","0","0.0234749","-0.980041","0.197407","-0.100261","-0.198773","-0.974903","0.994684","0.00309363","-0.102926"
"1","395419371947","11.1377","0.228867","-6.94489","0","0","0","0.026518","-0.980853","0.192936","-0.129906","-0.194748","-0.972213","0.991172","0.000717571","-0.132583"
"1","395436736449","8.70461","0.841919","-6.3893","0","0","0","0.0296152","-0.985094","0.169446","-0.156623","-0.172","-0.972566","0.987214","0.00226366","-0.159382"
"1","395453551635","7.05699","1.53162","-5.31644","0","0","0","0.0335233","-0.989449","0.140952","-0.18013","-0.144703","-0.972941","0.983071","0.00722653","-0.183081"
"1","395470305785","6.71214","1.72321","-3.78377","0","0","0","0.0344636","-0.994944","0.094331","-0.198444","-0.0993203","-0.975067","0.979506","0.0148849","-0.200864"
"1","395487120971","6.75047","2.06805","-2.95996","0","0","0","0.040856","-0.996162","0.0774141","-0.208933","-0.0842835","-0.974291","0.977076","0.0236313","-0.211574"
"1","395503875121","8.47472","1.95311","-2.50017","0","0","0","0.0492649","-0.996564","0.0665845","-0.21511","-0.0756876","-0.973652","0.975346","0.0336439","-0.2181"
"1","395520659789","9.50926","1.28256","-2.92165","0","0","0","0.0397059","-0.999115","-0.0138701","-0.221505","0.00473453","-0.975148","0.97435","0.0417914","-0.221121"
"1","395537474975","10.2373","0.133072","-3.11322","0","0","0","0.0450681","-0.998971","-0.00515136","-0.22523","-0.00513703","-0.974292","0.973263","0.0450697","-0.225229"
"1","395554198608","10.6204","-1.03558","-3.07491","0","0","0","0.0438277","-0.999031","0.0039147","-0.228706","-0.0138476","-0.973397","0.972509","0.0417664","-0.229091"
"1","395571013793","10.7929","-1.78276","-2.99828","0","0","0","0.0425573","-0.998407","0.0370496","-0.230538","-0.0458957","-0.971981","0.972132","0.0328235","-0.232124"
"1","395587828979","10.4863","-1.91687","-2.55763","0","0","0","0.0325882","-0.998448","0.0451537","-0.232639","-0.0515144","-0.971198","0.972017","0.0211451","-0.233957"
"1","395604613647","9.60506","-1.24632","-2.00204","0","0","0","0.0339612","-0.994753","0.0965057","-0.23151","-0.101765","-0.967495","0.97224","0.0105153","-0.233751"
"1","395621398315","8.64714","-0.365051","-1.36983","0","0","0","0.0294499","-0.994037","0.104991","-0.229944","-0.108956","-0.967085","0.972758","0.00433855","-0.231782"
"1","395638152465","7.7467","0.382126","-1.06329","0","0","0","0.0257089","-0.995045","0.0960443","-0.226662","-0.0993761","-0.96889","0.973634","0.0031395","-0.228094"
"1","395654967651","7.57426","0.784454","-0.603485","0","0","0","0.0266136","-0.995595","0.0899079","-0.222345","-0.0935822","-0.970466","0.974605","0.00583703","-0.223856"
"1","395671721801","8.09155","0.803604","-0.526855","0","0","0","0.0331867","-0.994116","0.10311","-0.215427","-0.107857","-0.970545","0.975956","0.00999654","-0.217739"
"1","395688536986","8.89619","0.535385","-0.641815","0","0","0","0.0240357","-0.998637","0.0463381","-0.21029","-0.0503649","-0.976341","0.977344","0.0137227","-0.211213"
"1","395705321654","9.1261","0.343811","-0.81424","0","0","0","0.0350985","-0.995141","0.0919951","-0.202057","-0.0972169","-0.974537","0.978745","0.0156166","-0.204487"
"1","395722106322","8.47472","0.401291","-0.62265","0","0","0","0.0421013","-0.991463","0.123405","-0.195029","-0.129294","-0.972238","0.979894","0.016865","-0.198807"
"1","395738860473","7.82333","0.592865","-0.0287476","0","0","0","0.04163","-0.992329","0.116406","-0.188672","-0.122218","-0.974405","0.981157","0.0186019","-0.192313"
"1","395755645141","7.7467","0.74614","0.488525","0","0","0","0.0409076","-0.993885","0.102559","-0.180046","-0.108297","-0.977678","0.982807","0.0215292","-0.183375"
"1","395772429809","7.8808","0.55455","0.680115","0","0","0","0.0495837","-0.988675","0.141644","-0.166758","-0.148023","-0.974824","0.98475","0.0247152","-0.172209"
"1","395789275512","8.5705","0.075592","0.680115","0","0","0","0.0575232","-0.979594","0.192578","-0.151779","-0.199236","-0.968126","0.986739","0.0264605","-0.160142"
"1","395805999145","9.3943","-0.230942","0.373581","0","0","0","0.0403018","-0.994157","0.100142","-0.145077","-0.104984","-0.983835","0.988599","0.025122","-0.14846"
"1","395822783813","10.6588","-0.0968323","-0.182007","0","0","0","0.0445123","-0.986137","0.159848","-0.132907","-0.16443","-0.977394","0.990128","0.0222612","-0.138383"
"1","395839568481","11.5975","0.726974","-0.852554","0","0","0","0.0485273","-0.976909","0.208071","-0.124263","-0.212603","-0.969205","0.991062","0.0211772","-0.131711"
"1","395856353149","11.9615","1.70406","-1.12076","0","0","0","0.0456885","-0.986203","0.159108","-0.12258","-0.163606","-0.978881","0.991406","0.0252202","-0.128364"
"1","395873137817","12.4405","2.48953","-0.852554","0","0","0","0.0538207","-0.986264","0.15616","-0.118698","-0.161597","-0.979692","0.991471","0.0341919","-0.125765"
"1","395889953002","12.9577","2.94934","0.373581","0","0","0","0.068101","-0.980794","0.182771","-0.109693","-0.189447","-0.975745","0.99163","0.0464005","-0.120488"
"1","395906707152","13.1877","2.68112","2.09782","0","0","0","0.0758473","-0.984656","0.157163","-0.0967876","-0.164143","-0.981677","0.992411","0.0592461","-0.107752"
"1","395923522338","12.9577","1.43584","3.36227","0","0","0","0.0826341","-0.981396","0.1733","-0.0735685","-0.179428","-0.981016","0.993861","0.068316","-0.0870267"
"1","395940276488","12.6895","-0.211777","2.95995","0","0","0","0.0771733","-0.989598","0.121409","-0.05364","-0.125717","-0.990615","0.995574","0.0699366","-0.0627841"
"1","395957091674","13.6858","0.305496","0.852539","0","0","0","0.0706941","-0.984358","0.161375","-0.0334128","-0.164026","-0.98589","0.996938","0.0643046","-0.0444858"
"1","395973876342","15.2567","1.07182","-3.91788","0","0","0","0.0670324","-0.991267","0.113563","-0.0348488","-0.116076","-0.992629","0.997142","0.0625807","-0.0423253"
"1","395990630492","16.6553","0.420441","-7.59627","0","0","0","0.0751233","-0.971383","0.225323","-0.0480056","-0.229223","-0.972189","0.996018","0.0622173","-0.0638518"
"1","396007476195","13.7624","0.401291","-7.38553","0","0","0","0.0715829","-0.988576","0.132637","-0.0871697","-0.13867","-0.986495","0.993618","0.0590542","-0.0961003"
"1","396024230346","8.99199","0.516235","-6.2935","0","0","0","0.0803188","-0.978726","0.188796","-0.111011","-0.197013","-0.974096","0.990568","0.0572797","-0.124473"
"1","396040465697","6.09909","0.362961","-4.12862","0","0","0","0.0837473","-0.980013","0.180447","-0.134925","-0.190567","-0.972358","0.98731","0.0570854","-0.148188"
"1","396057219848","4.47063","0.573715","-2.78754","0","0","0","0.0801434","-0.987013","0.139221","-0.152014","-0.150139","-0.976908","0.985124","0.0571292","-0.162072"
"1","396074553832","3.9342","1.1293","-2.21278","0","0","0","0.0898843","-0.980264","0.176075","-0.158152","-0.188596","-0.969236","0.983315","0.0592725","-0.171982"
"1","396091369018","7.38269","0.880249","-2.5768","0","0","0","0.0988266","-0.976413","0.191966","-0.163723","-0.206235","-0.964708","0.981544","0.0639096","-0.180243"
