"id","time","accX","accY","accZ","gyroX","gyroY","gyroZ","rot1","rot2","rot3","rot4","rot5","rot6","rot7","rot8","rot9"
"9","333443393202911","9.94991","0.075592","-1.61888","0","0","0","0","0","0","0","0","0","0","0","0"
"9","333443402480255","9.91159","0.075592","-1.61888","0","0","0","0","0","0","0","0","0","0","0","0"
"9","333443419264923","9.89243","0.0947571","-1.46562","0","0","0","0","0","0","0","0","0","0","0","0"
"9","333443436080108","9.89243","0.0947571","-1.48477","0","0","0","0.0410751","-0.978255","0.203297","-0.155039","-0.207244","-0.965926","0.987054","0.00815659","-0.16018"
"9","333443452864776","9.85411","0.0947571","-1.40814","0","0","0","0.0440504","-0.973455","0.224599","-0.149439","-0.228709","-0.961957","0.987789","0.0088107","-0.155547"
"9","333443469649444","9.79663","0.0564423","-1.44646","0","0","0","0.0432564","-0.974328","0.22094","-0.146107","-0.224939","-0.963356","0.988323","0.0093905","-0.152086"
"9","333443486464630","9.83495","-0.0010376","-1.50394","0","0","0","0.0391889","-0.979841","0.195897","-0.147077","-0.199568","-0.968783","0.988348","0.00915367","-0.151933"
"9","333443503188263","9.89243","-0.0010376","-1.48477","0","0","0","0.0415585","-0.975742","0.214942","-0.146401","-0.218752","-0.964735","0.988352","0.00862536","-0.15194"
"9","333443520003448","9.83495","0.075592","-1.46562","0","0","0","0.0459953","-0.968632","0.244206","-0.145068","-0.24835","-0.957746","0.988352","0.00862536","-0.15194"
"9","333443536849151","9.79663","0.152222","-1.40814","0","0","0","0.0419824","-0.974379","0.220961","-0.146128","-0.224766","-0.963393","0.988374","0.00815685","-0.151821"
"9","333443553664337","9.77748","0.152222","-1.36983","0","0","0","0.0517886","-0.956659","0.286567","-0.142678","-0.291096","-0.945995","0.988413","0.00810504","-0.15157"
"9","333443570326934","9.85411","0.113907","-1.33151","0","0","0","0.0463968","-0.967246","0.249563","-0.143971","-0.253698","-0.956509","0.988494","0.00844932","-0.151026"
"9","333443587111602","9.93074","0.075592","-1.44646","0","0","0","0.0464901","-0.967319","0.249266","-0.143141","-0.253412","-0.95671","0.98861","0.0087974","-0.150244"
"9","333443604018341","9.94991","0.113907","-1.50394","0","0","0","0.0464673","-0.967264","0.249482","-0.142179","-0.253613","-0.9568","0.98875","0.00898875","-0.14931"
"9","333443620741974","9.94991","0.133072","-1.5614","0","0","0","0.0488511","-0.963276","0.26403","-0.14163","-0.268355","-0.952852","0.988714","0.00915338","-0.149538"
"9","333443637526642","9.91159","0.0947571","-1.50394","0","0","0","0.0496795","-0.962334","0.267292","-0.141821","-0.271708","-0.951873","0.988645","0.00938107","-0.149977"
"9","333443654280792","9.93074","0.0947571","-1.50394","0","0","0","0.040733","-0.977548","0.20674","-0.144746","-0.210502","-0.966818","0.98863","0.00945678","-0.15007"
"9","333443671095977","9.98822","0.0564423","-1.59972","0","0","0","0.0568352","-0.947554","0.314502","-0.139264","-0.319455","-0.937312","0.988623","0.00947373","-0.150116"
"9","333443687850128","10.0457","0.0181122","-1.69551","0","0","0","0.0448513","-0.971034","0.234693","-0.144079","-0.238761","-0.96033","0.988549","0.0092577","-0.150614"
"9","333443704665313","10.0265","-0.0202026","-1.71468","0","0","0","0.0491273","-0.963483","0.263223","-0.142677","-0.267608","-0.952906","0.988549","0.0092577","-0.150614"
"9","333443721480499","9.94991","-0.0010376","-1.73383","0","0","0","0.0443559","-0.971028","0.234815","-0.146149","-0.238825","-0.960002","0.988268","0.00826369","-0.152508"
"9","333443738204132","9.93074","-0.0010376","-1.69551","0","0","0","0.0456586","-0.968667","0.244131","-0.147001","-0.248241","-0.95748","0.988082","0.00782963","-0.153729"
"9","333443755019317","9.94991","0.0372772","-1.84879","0","0","0","0.0478989","-0.96463","0.25922","-0.147455","-0.263504","-0.953322","0.987908","0.00743988","-0.154861"
"9","333443771834503","9.94991","0.0947571","-1.8871","0","0","0","0.0531017","-0.954671","0.292889","-0.145662","-0.297571","-0.943522","0.987908","0.00743988","-0.154861"
"9","333443788619171","9.93074","0.171387","-1.86794","0","0","0","0.0449646","-0.970038","0.238757","-0.150142","-0.242846","-0.958375","0.987641","0.00724563","-0.156563"
"9","333443805342804","9.91159","0.133072","-1.73383","0","0","0","0.0546964","-0.953464","0.296505","-0.148794","-0.301417","-0.941811","0.987354","0.00739543","-0.158356"
"9","333443822157989","9.89243","0.0947571","-1.75299","0","0","0","0.0554911","-0.953608","0.295891","-0.150057","-0.300947","-0.941761","0.987119","0.00785869","-0.159796"
"9","333443838973175","9.87326","0.113907","-1.81047","0","0","0","0.0461098","-0.971094","0.2342","-0.154016","-0.238557","-0.958837","0.986992","0.00814112","-0.160564"
"9","333443855727325","9.83495","0.113907","-1.90625","0","0","0","0.0460026","-0.971667","0.231835","-0.154843","-0.236211","-0.959285","0.986867","0.00823158","-0.161322"
"9","333443872481475","9.79663","0.133072","-1.82962","0","0","0","0.0538558","-0.959109","0.277865","-0.153448","-0.282913","-0.946791","0.986688","0.00835238","-0.16241"
"9","333443889296661","9.75832","0.0947571","-1.8871","0","0","0","0.0499587","-0.967637","0.247352","-0.157796","-0.252198","-0.954723","0.986207","0.00866542","-0.165289"
"9","333443906081329","9.79663","0.0947571","-2.00204","0","0","0","0.0432938","-0.977366","0.207076","-0.159754","-0.211376","-0.964261","0.986207","0.00866542","-0.165289"
"9","333443922865997","9.83495","0.113907","-1.92542","0","0","0","0.0478897","-0.971525","0.232049","-0.160138","-0.236778","-0.958276","0.985932","0.00873174","-0.166917"
"9","333443939681183","9.79663","0.0947571","-1.77214","0","0","0","0.048666","-0.971126","0.233551","-0.161825","-0.238405","-0.957589","0.985619","0.00880766","-0.168754"
"9","333443956435333","9.68169","0.0372772","-1.73383","0","0","0","0.0400209","-0.982863","0.179943","-0.165551","-0.184121","-0.968861","0.98529","0.00894857","-0.170655"
"9","333443973158966","9.60506","0.0372772","-1.75299","0","0","0","0.0463956","-0.975127","0.216737","-0.16447","-0.221466","-0.961198","0.98529","0.00894857","-0.170655"
"9","333443990035186","9.62421","0.0947571","-1.75299","0","0","0","0.0437852","-0.978302","0.202504","-0.165519","-0.207001","-0.964238","0.985234","0.00870116","-0.170991"
"9","333444006850372","9.62421","0.0564423","-1.69551","0","0","0","0.0504184","-0.969252","0.240849","-0.164393","-0.24592","-0.955248","0.985106","0.00856829","-0.171737"
"9","333444023604522","9.8158","-0.0393524","-1.81047","0","0","0","0.047605","-0.973197","0.22499","-0.165657","-0.229819","-0.959031","0.985034","0.00838336","-0.172158"
"9","333444041243683","10.1223","-0.115982","-1.81047","0","0","0","0.0459445","-0.974711","0.218697","-0.16678","-0.22334","-0.960366","0.984923","0.00764943","-0.172823"
"9","333444058089386","10.3522","-0.135147","-1.63805","0","0","0","0.0557626","-0.958128","0.280858","-0.163861","-0.286263","-0.944035","0.984906","0.00662028","-0.172962"
"9","333444074080597","10.4289","-0.173462","-1.48477","0","0","0","0.0410914","-0.978149","0.203804","-0.167213","-0.207831","-0.963766","0.985064","0.00552389","-0.1721"
"9","333444090712677","10.199","-0.211777","-1.25487","0","0","0","0.0430467","-0.973443","0.224847","-0.164781","-0.228891","-0.959404","0.98539","0.00424873","-0.170257"
"9","333444107497345","9.8158","-0.365051","-1.02498","0","0","0","0.0503017","-0.958547","0.280461","-0.159693","-0.284923","-0.945155","0.985884","0.0027551","-0.167406"
"9","333444124343048","9.47095","-0.499161","-1.13992","0","0","0","0.0356175","-0.976896","0.210728","-0.160137","-0.213716","-0.963681","0.986452","0.000578685","-0.164049"
"9","333444141066681","9.35599","-0.365051","-1.63805","0","0","0","0.053958","-0.938296","0.341598","-0.152513","-0.345827","-0.92582","0.986827","-0.00214257","-0.161762"
"9","333444157851349","9.50926","-0.0393524","-2.23195","0","0","0","0.0412271","-0.961034","0.273339","-0.157319","-0.276403","-0.948078","0.986687","-0.00391498","-0.162584"
"9","333444174727569","9.41347","0.49707","-2.95996","0","0","0","0.041833","-0.962345","0.268591","-0.161313","-0.271805","-0.948736","0.986016","-0.00363896","-0.16661"
"9","333444191420684","9.10693","1.32088","-3.78377","0","0","0","0.0511875","-0.955118","0.29177","-0.166725","-0.296225","-0.940454","0.984674","-0.00050586","-0.174405"
"9","333444208144317","8.99199","1.53162","-3.72629","0","0","0","0.0630258","-0.949919","0.306074","-0.17422","-0.312446","-0.933823","0.982688","0.00553066","-0.185187"
"9","333444224959503","8.85788","1.70406","-3.45808","0","0","0","0.0578482","-0.973639","0.220636","-0.187916","-0.227675","-0.955433","0.98048","0.0138091","-0.196133"
"9","333444241805206","9.20273","1.68489","-3.05576","0","0","0","0.0695854","-0.971843","0.225121","-0.194128","-0.234546","-0.952524","0.978505","0.0225794","-0.204983"
"9","333444258559356","10.0648","1.41667","-2.46185","0","0","0","0.0695854","-0.971843","0.225121","-0.194128","-0.234546","-0.952524","0.978505","0.0225794","-0.204983"
"9","333444275252472","10.7162","0.822769","-2.481","0","0","0","0.0609655","-0.992076","0.109859","-0.20634","-0.120213","-0.971068","0.976579","0.0365332","-0.212034"
"9","333444292098175","11.3868","-0.863159","-0.335281","0","0","0","0.0775096","-0.979409","0.186416","-0.199371","-0.198428","-0.959624","0.976854","0.0372142","-0.210645"
"9","333444309065948","11.2335","-2.01266","0.58432","0","0","0","0.0531655","-0.992091","0.113707","-0.194582","-0.121978","-0.973272","0.979444","0.0296191","-0.199528"
"9","333444325667511","10.8312","-2.10844","0.0478973","0","0","0","0.0635676","-0.966473","0.248776","-0.17471","-0.256208","-0.950702","0.982566","0.01697","-0.185139"
"9","333444343428741","11.0036","-1.05475","-0.296951","0","0","0","0.0516359","-0.963236","0.263647","-0.166728","-0.268609","-0.94871","0.98465","0.00503012","-0.174469"
"9","333444359297882","10.7162","0.477921","-0.603485","0","0","0","0.0456747","-0.960896","0.273118","-0.159538","-0.276911","-0.947559","0.986135","-0.000293369","-0.165947"
"9","333444376082550","10.4097","1.60826","-1.69551","0","0","0","0.0536297","-0.947916","0.313973","-0.151089","-0.318509","-0.935801","0.987064","0.0027488","-0.160301"
"9","333444392836700","10.199","2.10637","-2.34689","0","0","0","0.060822","-0.950055","0.306098","-0.149068","-0.311873","-0.938357","0.986955","0.0114433","-0.160592"
"9","333444403487335","10.0265","1.97226","-2.28943","0","0","0","0.060822","-0.950055","0.306098","-0.149068","-0.311873","-0.938357","0.986955","0.0114433","-0.160592"
"9","333444418318878","9.75832","1.76152","-2.38521","0","0","0","0.075698","-0.941033","0.329736","-0.147081","-0.337605","-0.929726","0.986224","0.0218803","-0.163965"
"9","333444435042511","8.87703","1.14845","-2.07867","0","0","0","0.0864415","-0.937581","0.336853","-0.146972","-0.34642","-0.926495","0.985356","0.0305795","-0.167743"
"9","333444444136749","8.83871","1.1293","-1.77214","0","0","0","0.0822115","-0.960765","0.264901","-0.155252","-0.274902","-0.948855","0.984448","0.0368806","-0.17176"
"9","333444460036407","8.85788","1.37836","-1.23572","0","0","0","0.0897176","-0.955235","0.281916","-0.153493","-0.292937","-0.943731","0.984068","0.0413972","-0.172903"
"9","333444476851593","8.97282","1.83815","-0.948334","0","0","0","0.0934658","-0.95746","0.27301","-0.151121","-0.284676","-0.946637","0.984087","0.0472208","-0.1713"
"9","333444493575225","9.16441","2.08722","-0.833389","0","0","0","0.0992109","-0.958768","0.266309","-0.146437","-0.278783","-0.949124","0.984232","0.055166","-0.168058"
"9","333444510298858","9.24104","1.64658","-1.04413","0","0","0","0.105752","-0.959192","0.262237","-0.140922","-0.27551","-0.950913","0.984356","0.0636061","-0.164307"
"9","333444528060089","9.45178","0.899399","-1.40814","0","0","0","0.107964","-0.963392","0.245397","-0.138966","-0.25904","-0.955817","0.984394","0.0690919","-0.161845"
"9","333444544081817","9.58589","0.458755","-1.52309","0","0","0","0.111284","-0.958702","0.261736","-0.135991","-0.275585","-0.951609","0.98444","0.0703049","-0.161043"
"9","333444560683380","9.52841","0.401291","-1.61888","0","0","0","0.11092","-0.956993","0.268071","-0.135311","-0.281766","-0.949894","0.984575","0.0690896","-0.160745"
"9","333444577468048","9.8158","0.899399","-1.98289","0","0","0","0.106981","-0.963386","0.24585","-0.138897","-0.259325","-0.95575","0.984511","0.0680993","-0.161555"
"9","333444594344268","10.0265","1.30173","-2.05952","0","0","0","0.112021","-0.957094","0.267248","-0.13805","-0.281322","-0.949632","0.98407","0.0694848","-0.163641"
"9","333444611037384","9.98822","1.39752","-2.32774","0","0","0","0.119833","-0.9482","0.294204","-0.136099","-0.309231","-0.941198","0.983421","0.0727453","-0.166105"
"9","333444627852569","9.64337","1.4933","-2.38521","0","0","0","0.126488","-0.943184","0.307255","-0.136577","-0.323351","-0.936371","0.982521","0.076476","-0.169718"
"9","333444644728790","9.10693","1.70406","-2.17447","0","0","0","0.121728","-0.962884","0.24091","-0.147654","-0.257581","-0.954909","0.98152","0.0806676","-0.173528"
"9","333444661421905","8.97282","1.99142","-1.67636","0","0","0","0.123813","-0.968626","0.215486","-0.152386","-0.233141","-0.960429","0.980535","0.0860762","-0.176471"
"9","333444678145538","10.0648","2.14468","0.0478973","0","0","0","0.133797","-0.962195","0.23723","-0.147334","-0.256036","-0.955374","0.979995","0.0928746","-0.176021"
"9","333444694991241","10.6396","1.99142","0.431061","0","0","0","0.131464","-0.973496","0.187144","-0.145472","-0.205684","-0.967746","0.980589","0.0999991","-0.168656"
"9","333444711836944","11.8274","0.822769","-0.0287476","0","0","0","0.126304","-0.982795","0.134763","-0.139429","-0.15209","-0.978483","0.982144","0.104796","-0.156239"
"9","333444728499542","12.4596","0.401291","-1.00581","0","0","0","0.119064","-0.987101","0.107028","-0.133562","-0.122738","-0.983411","0.983862","0.102794","-0.146453"
"9","333444745253692","12.9194","1.07182","-1.92542","0","0","0","0.131375","-0.960797","0.24415","-0.112999","-0.259193","-0.959192","0.984871","0.0984256","-0.142621"
"9","333444762099395","12.5746","2.31711","-2.59595","0","0","0","0.128264","-0.966789","0.22106","-0.116883","-0.236084","-0.964678","0.984828","0.0978957","-0.143282"
"9","333444778945099","11.9232","3.60072","-3.01744","0","0","0","0.127904","-0.978277","0.163141","-0.127301","-0.179325","-0.975519","0.983583","0.104005","-0.147472"
"9","333444795668731","11.5017","3.65819","-3.03659","0","0","0","0.141875","-0.975094","0.170477","-0.129969","-0.189077","-0.973323","0.981315","0.115933","-0.153557"
"9","333444812483917","12.498","2.01057","-3.45808","0","0","0","0.146714","-0.982014","0.11884","-0.141661","-0.139761","-0.98","0.978983","0.126945","-0.159618"
"9","333444829207550","12.862","1.55078","-3.72629","0","0","0","0.141911","-0.988531","0.0516582","-0.157326","-0.0740469","-0.984767","0.977297","0.131622","-0.166029"
"9","333444846053253","12.3255","1.05267","-4.03282","0","0","0","0.152875","-0.980589","0.12278","-0.154271","-0.146397","-0.977122","0.97613","0.130436","-0.173657"
"9","333444862868438","9.85411","1.07182","-4.22441","0","0","0","0.141749","-0.987678","0.0663309","-0.172844","-0.0906729","-0.980767","0.974696","0.127558","-0.183567"
"9","333444879622589","7.84248","1.14845","-3.80293","0","0","0","0.139978","-0.988482","0.0575287","-0.185782","-0.0832886","-0.979055","0.972569","0.126359","-0.195301"
"9","333444896376739","6.5014","1.05267","-3.30481","0","0","0","0.144926","-0.985883","0.0838471","-0.181949","-0.109851","-0.977153","0.972569","0.126359","-0.195301"
"9","333444913161407","6.36729","0.74614","-3.59218","0","0","0","0.155738","-0.980522","0.119677","-0.196826","-0.149529","-0.968969","0.96799","0.12735","-0.216279"
"9","333444929976593","7.42101","0.382126","-3.64966","0","0","0","0.14975","-0.98472","0.0888923","-0.212524","-0.119862","-0.969777","0.965613","0.126332","-0.227226"
"9","333444946791778","8.99199","-0.0010376","-3.34312","0","0","0","0.151502","-0.982557","0.107833","-0.21939","-0.139796","-0.96557","0.963802","0.122629","-0.236742"
"9","333444963515411","9.98822","-0.250092","-3.45808","0","0","0","0.137135","-0.988019","0.0708006","-0.231757","-0.101495","-0.967464","0.963059","0.116265","-0.242899"
"9","333444980239044","10.199","-0.0393524","-3.26649","0","0","0","0.13733","-0.985282","0.101785","-0.232997","-0.132008","-0.963476","0.962732","0.108599","-0.247696"
"9","333444997084747","9.62421","0.55455","-3.61134","0","0","0","0.145929","-0.976094","0.161073","-0.228645","-0.191685","-0.954452","0.96251","0.102454","-0.251152"
"9","333445013869415","9.16441","0.726974","-3.87956","0","0","0","0.124082","-0.988981","0.0807419","-0.245933","-0.109484","-0.963084","0.961312","0.0996447","-0.256808"
"9","333445030684600","8.81956","0.861084","-3.78377","0","0","0","0.134007","-0.983582","0.12087","-0.247881","-0.151362","-0.956893","0.959477","0.0982692","-0.264095"
"9","333445047438751","8.24481","1.07182","-3.59218","0","0","0","0.108015","-0.993902","0.0221759","-0.267171","-0.0505068","-0.962325","0.957576","0.0980207","-0.270997"
"9","333445064223419","7.76585","1.01434","-3.97536","0","0","0","0.135923","-0.983859","0.116392","-0.261925","-0.148989","-0.953519","0.955469","0.0991189","-0.277948"
"9","333445081038604","7.8808","0.573715","-4.01367","0","0","0","0.128651","-0.988157","0.0836333","-0.274918","-0.116566","-0.954375","0.952822","0.0997886","-0.286658"
"9","333445097853790","8.47472","0.0564423","-3.57303","0","0","0","0.127925","-0.98818","0.0844725","-0.283009","-0.118002","-0.951831","0.950548","0.0978563","-0.294759"
"9","333445114607940","9.18356","-0.307571","-3.30481","0","0","0","0.132761","-0.984456","0.114979","-0.284072","-0.148933","-0.947165","0.949567","0.093084","-0.299429"
"9","333445131362091","9.56674","-0.422516","-3.03659","0","0","0","0.12757","-0.984558","0.119878","-0.286449","-0.152288","-0.945915","0.949564","0.0863317","-0.301454"
"9","333445148116241","9.1261","-0.307571","-2.53848","0","0","0","0.115357","-0.987883","0.10383","-0.289289","-0.133409","-0.9479","0.950266","0.0793097","-0.301173"
"9","333445166030059","8.81956","-0.384201","-2.34689","0","0","0","0.107142","-0.989391","0.0981082","-0.289234","-0.125425","-0.949006","0.951244","0.0733019","-0.299604"
"9","333445181716095","8.58966","-0.479996","-2.481","0","0","0","0.108921","-0.986142","0.125139","-0.285252","-0.151601","-0.946387","0.952243","0.0673852","-0.297812"
"9","333445198531280","8.51303","-0.7099","-2.46185","0","0","0","0.101666","-0.987173","0.123103","-0.28558","-0.147497","-0.946937","0.952947","0.0611159","-0.296912"
"9","333445215224395","8.24481","-0.882324","-2.23195","0","0","0","0.123923","-0.966897","0.223056","-0.274137","-0.2494","-0.928789","0.953673","0.0539499","-0.295968"
"9","333445232070099","8.12987","-0.958954","-2.53848","0","0","0","0.0903504","-0.986292","0.138078","-0.284265","-0.158417","-0.945567","0.954479","0.0461815","-0.294681"
"9","333445248854767","8.35976","-0.78653","-2.71091","0","0","0","0.11829","-0.958961","0.257683","-0.273037","-0.280914","-0.920075","0.954703","0.0384788","-0.295061"
"9","333445265669952","8.76208","-0.460846","-2.34689","0","0","0","0.0902497","-0.978519","0.185352","-0.283021","-0.203638","-0.937247","0.954858","0.0321277","-0.295319"
"9","333445283370147","9.27936","-0.422516","-1.73383","0","0","0","0.0960008","-0.970446","0.221403","-0.278284","-0.239727","-0.930102","0.955689","0.0276778","-0.293073"
"9","333445299269806","8.99199","-0.59494","-1.54225","0","0","0","0.0810557","-0.978528","0.189506","-0.276939","-0.204756","-0.938818","0.957463","0.023615","-0.287589"
"9","333445315993438","8.12987","-0.767365","-2.5768","0","0","0","0.103254","-0.952229","0.287398","-0.263427","-0.304804","-0.91526","0.959138","0.0187962","-0.282315"
"9","333445333876739","7.82333","-0.7099","-3.01744","0","0","0","0.0888827","-0.962855","0.254972","-0.269696","-0.269687","-0.92441","0.958835","0.0133991","-0.283648"
"9","333445349593292","8.76208","-0.65242","-2.13615","0","0","0","0.0928036","-0.955067","0.281486","-0.271425","-0.296265","-0.915727","0.957975","0.00858062","-0.286723"
"9","333445366347442","11.655","-0.135147","-0.852554","0","0","0","0.0923606","-0.955549","0.279991","-0.271576","-0.294707","-0.916185","0.957975","0.00858062","-0.286723"
"9","333445383132110","13.0727","1.5891","0.201157","0","0","0","0.0934149","-0.94289","0.319738","-0.251803","-0.333076","-0.908656","0.963259","0.00437075","-0.268537"
"9","333445400038849","13.4367","3.46661","0.201157","0","0","0","0.102522","-0.932463","0.346413","-0.226929","-0.36099","-0.904538","0.9685","0.0141242","-0.248612"
"9","333445416701446","13.954","3.65819","1.19739","0","0","0","0.107371","-0.939817","0.32437","-0.203846","-0.340135","-0.918017","0.973097","0.0324468","-0.228099"
"9","333445433547149","13.59","-0.460846","-0.56517","0","0","0","0.0875604","-0.977181","0.19352","-0.192856","-0.20722","-0.959097","0.977313","0.0466574","-0.206599"
"9","333445450209747","13.0152","-3.6028","-2.73006","0","0","0","0.0924108","-0.958758","0.26878","-0.177109","-0.281457","-0.943087","0.979843","0.0395482","-0.195814"
"9","333445468001495","12.5363","-4.40744","-4.20525","0","0","0","0.0814385","-0.943509","0.321183","-0.180674","-0.33089","-0.926212","0.980166","0.0174001","-0.197414"
"9","333445483870636","10.3714","-2.97058","-4.85663","0","0","0","0.0601823","-0.947841","0.313012","-0.197208","-0.318689","-0.927117","0.978513","-0.00593218","-0.206101"
"9","333445500655304","8.74294","-1.47623","-5.75706","0","0","0","0.0758848","-0.904039","0.420661","-0.207976","-0.426949","-0.880034","0.975186","-0.0207062","-0.220417"
"9","333445517409454","8.39807","0.439606","-4.51178","0","0","0","0.0615577","-0.93304","0.354466","-0.232035","-0.358787","-0.904119","0.970758","-0.0265929","-0.238584"
"9","333445534285675","8.97282","1.53162","-2.05952","0","0","0","0.0633331","-0.941326","0.331503","-0.242261","-0.336735","-0.909901","0.968142","-0.0226832","-0.249373"
"9","333445550978790","9.41347","1.30173","-2.17447","0","0","0","0.0768516","-0.933206","0.351027","-0.236817","-0.359078","-0.902763","0.96851","-0.0137505","-0.248595"
"9","333445567793975","10.7354","0.0564423","-4.26273","0","0","0","0.0682941","-0.953258","0.294338","-0.239191","-0.302067","-0.922791","0.968568","-0.00738185","-0.24864"
"9","333445584670196","11.1952","-0.441681","-5.0099","0","0","0","0.0645207","-0.960995","0.268933","-0.24815","-0.27648","-0.928429","0.966571","-0.00683281","-0.25631"
"9","333445601302276","10.9461","-0.365051","-5.12485","0","0","0","0.086062","-0.935909","0.341568","-0.252391","-0.352137","-0.901276","0.963791","-0.00864292","-0.26652"
"9","333445618117462","10.563","0.0181122","-5.29727","0","0","0","0.0677171","-0.960717","0.26914","-0.268776","-0.277353","-0.922407","0.960819","-0.00987583","-0.277"
"9","333445635085235","9.75832","0.592865","-4.91411","0","0","0","0.0814682","-0.950322","0.300418","-0.276159","-0.311142","-0.909355","0.957653","-0.00887982","-0.287788"
"9","333445651747833","8.89619","0.477921","-4.28189","0","0","0","0.0828653","-0.955246","0.283968","-0.285456","-0.29576","-0.911614","0.954803","-0.00551938","-0.297189"
"9","333445668501983","8.28313","0.0181122","-3.63051","0","0","0","0.071648","-0.969572","0.234085","-0.295724","-0.244785","-0.923378","0.952583","-0.00306625","-0.304264"
"9","333445685225616","7.86165","0.343811","-2.53848","0","0","0","0.0878381","-0.956538","0.278063","-0.297324","-0.291594","-0.90916","0.950728","-0.00281609","-0.310015"
"9","333445702071319","7.82333","1.03351","-2.55763","0","0","0","0.0878381","-0.956538","0.278063","-0.297324","-0.291594","-0.90916","0.950728","-0.00281609","-0.310015"
"9","333445718917022","8.07239","1.28256","-2.51932","0","0","0","0.087027","-0.959887","0.26654","-0.297602","-0.280387","-0.912588","0.950715","9.71042e-05","-0.310065"
"9","333445735610138","8.24481","1.37836","-2.86417","0","0","0","0.101374","-0.951793","0.289505","-0.292785","-0.30666","-0.905669","0.950789","0.0070486","-0.309759"
"9","333445752394806","7.82333","1.39752","-3.22818","0","0","0","0.0891731","-0.969615","0.227803","-0.298239","-0.244214","-0.922721","0.950317","0.0143422","-0.310954"
"9","333445769179474","7.22942","1.62741","-3.45808","0","0","0","0.106854","-0.960633","0.25645","-0.296717","-0.276983","-0.913914","0.948969","0.0215619","-0.314633"
"9","333445785994659","6.78879","1.87648","-3.32397","0","0","0","0.113105","-0.962898","0.24502","-0.300867","-0.268217","-0.915172","0.946935","0.0297916","-0.320041"
"9","333445802840362","6.86542","2.12553","-2.82585","0","0","0","0.118715","-0.966289","0.228458","-0.305033","-0.254451","-0.91772","0.944914","0.0392601","-0.324957"
"9","333445819655548","7.15279","2.54701","-2.61511","0","0","0","0.110713","-0.979265","0.169656","-0.311819","-0.196312","-0.92964","0.943669","0.0500214","-0.327088"
"9","333445836287628","7.72754","2.60449","-2.28943","0","0","0","0.13026","-0.973275","0.189124","-0.30666","-0.220945","-0.92582","0.942864","0.0626005","-0.327244"
"9","333445853102813","9.08778","1.18677","-0.948334","0","0","0","0.117338","-0.985959","0.118815","-0.309879","-0.150019","-0.938866","0.943508","0.0733468","-0.323131"
"9","333445871016632","9.26021","0.286331","-0.833389","0","0","0","0.112808","-0.988458","0.101119","-0.300754","-0.130963","-0.944667","0.947007","0.0761539","-0.312057"
"9","333445886672149","8.37892","-0.0202026","-0.986664","0","0","0","0.102539","-0.991447","0.0807371","-0.292136","-0.107601","-0.950304","0.950864","0.0738573","-0.300671"
"9","333445903487335","7.32521","0.209702","-2.481","0","0","0","0.110101","-0.986494","0.121272","-0.280679","-0.147908","-0.948337","0.953466","0.070374","-0.293173"
"9","333445921095977","6.94205","1.14845","-4.10945","0","0","0","0.095341","-0.992525","0.0761913","-0.287769","-0.100753","-0.952385","0.952942","0.0688759","-0.295224"
"9","333445937056671","8.45555","1.97226","-3.07491","0","0","0","0.119252","-0.983544","0.135722","-0.290437","-0.165275","-0.942513","0.949434","0.0729779","-0.305367"
"9","333445954024444","12.9194","0.899399","1.15907","0","0","0","0.100315","-0.993579","0.052317","-0.297437","-0.0801248","-0.951374","0.949457","0.079876","-0.303564"
"9","333445970626007","15.2376","-2.35751","1.96371","0","0","0","0.0982779","-0.99323","0.0619272","-0.268524","-0.0863873","-0.959391","0.958246","0.077658","-0.275196"
"9","333445987349640","15.1418","-5.88263","0.66095","0","0","0","0.0939298","-0.984832","0.14589","-0.230818","-0.164087","-0.959061","0.968453","0.0564104","-0.242729"
"9","333446004256378","13.6091","-3.89017","-0.967499","0","0","0","0.0724552","-0.971175","0.227087","-0.208885","-0.237412","-0.948685","0.975253","0.0213021","-0.220065"
"9","333446020949493","12.2297","1.39752","-4.22441","0","0","0","0.0647897","-0.953778","0.293445","-0.200906","-0.300509","-0.932379","0.977466","0.00145352","-0.21109"
"9","333446038771759","12.3064","5.22917","-7.71121","0","0","0","0.0755139","-0.954304","0.289138","-0.207697","-0.298659","-0.931485","0.975274","0.0102871","-0.220759"
"9","333446054488311","12.8428","5.51654","-7.36636","0","0","0","0.101134","-0.961514","0.255466","-0.225759","-0.272264","-0.935364","0.96892","0.036923","-0.244605"
"9","333446073104034","11.655","3.77315","-5.89117","0","0","0","0.109916","-0.979086","0.171197","-0.248361","-0.193832","-0.949076","0.962411","0.0617996","-0.264472"
"9","333446088210235","9.83495","2.02974","-4.64589","0","0","0","0.0978551","-0.993173","0.063501","-0.269969","-0.0879058","-0.958848","0.957884","0.0766848","-0.276728"
"9","333446104750763","9.22188","-1.03558","-3.87956","0","0","0","0.119535","-0.985867","0.11738","-0.2717","-0.146198","-0.951213","0.954929","0.0818113","-0.285336"
"9","333446121047149","9.70084","-1.59117","-3.8604","0","0","0","0.094806","-0.994241","0.0499626","-0.28659","-0.0753229","-0.955088","0.953351","0.0762292","-0.292081"
"9","333446138381134","10.4863","-0.307571","-4.16693","0","0","0","0.118984","-0.978191","0.170251","-0.279151","-0.19751","-0.939715","0.952847","0.0642849","-0.296563"
"9","333446155165802","10.3139","1.60826","-4.78","0","0","0","0.123929","-0.972348","0.197943","-0.281292","-0.225723","-0.932697","0.951586","0.0599087","-0.301487"
"9","333446171950470","10.199","2.37459","-4.64589","0","0","0","0.113388","-0.983446","0.141343","-0.294051","-0.169104","-0.940711","0.94904","0.065104","-0.308357"
"9","333446188704620","9.70084","1.37836","-5.12485","0","0","0","0.119127","-0.984317","0.130112","-0.30057","-0.160648","-0.940133","0.946291","0.0728878","-0.314993"
"9","333446205489288","9.33684","0.228867","-5.0099","0","0","0","0.132132","-0.978525","0.15821","-0.305141","-0.192012","-0.932749","0.943096","0.0749692","-0.323959"
"9","333446222304474","8.45555","0.362961","-4.12862","0","0","0","0.126681","-0.981302","0.144907","-0.315225","-0.178337","-0.93211","0.940524","0.072402","-0.331923"
"9","333446239058624","7.97659","0.55455","-3.8604","0","0","0","0.118202","-0.985469","0.121982","-0.323715","-0.154374","-0.933476","0.938742","0.0708514","-0.337258"
"9","333446255873809","8.01491","0.784454","-3.8604","0","0","0","0.103537","-0.991485","0.0789777","-0.333384","-0.109406","-0.936422","0.937089","0.0706245","-0.341873"
"9","333446272627960","8.14902","1.07182","-3.89871","0","0","0","0.110212","-0.989582","0.0926351","-0.335936","-0.124807","-0.933579","0.935414","0.0717725","-0.346191"
"9","333446289412628","8.35976","0.74614","-3.20901","0","0","0","0.104639","-0.992004","0.0705628","-0.341388","-0.10247","-0.93432","0.93408","0.0736769","-0.34938"
"9","333446306227813","8.32144","0.0564423","-2.63428","0","0","0","0.0963","-0.994201","0.0478591","-0.344207","-0.0783794","-0.935617","0.933942","0.0736265","-0.349759"
"9","333446322463165","7.67006","-0.824844","-1.81047","0","0","0","0.0882982","-0.995397","0.0372676","-0.342942","-0.0655051","-0.93707","0.935198","0.069961","-0.347147"
"9","333446339766632","7.13364","-1.7636","-1.96373","0","0","0","0.0906914","-0.993499","0.0688103","-0.336434","-0.0955975","-0.936842","0.93733","0.0618134","-0.342916"
"9","333446356551300","6.76962","-2.30003","-1.63805","0","0","0","0.080883","-0.99352","0.079845","-0.333708","-0.102477","-0.93709","0.9392","0.0491498","-0.339834"
"9","333446373335968","6.40561","-2.20424","-1.54225","0","0","0","0.0824411","-0.988019","0.130468","-0.327706","-0.150509","-0.932714","0.941176","0.0341389","-0.336188"
"9","333446390090118","6.52057","-1.59117","-1.6572","0","0","0","0.0470228","-0.996326","0.0715777","-0.329865","-0.0831255","-0.940361","0.942856","0.0206075","-0.332561"
"9","333446406325470","7.38269","-0.844009","-1.81047","0","0","0","0.06295","-0.987053","0.147525","-0.323411","-0.160017","-0.932631","0.944162","0.010998","-0.329297"
"9","333446423140655","8.35976","-0.0393524","-0.967499","0","0","0","0.0610355","-0.985211","0.160106","-0.318649","-0.171245","-0.932276","0.945906","0.00588427","-0.324388"
"9","333446439955841","7.78502","0.075592","-1.27403","0","0","0","0.0552629","-0.987113","0.150177","-0.310116","-0.159937","-0.937149","0.949091","0.00521746","-0.314958"
"9","333446457259308","7.26775","-0.307571","-2.481","0","0","0","0.070319","-0.977123","0.200715","-0.300748","-0.212617","-0.929701","0.951108","0.00501112","-0.308818"
"9","333446474105011","7.53595","-0.365051","-4.07114","0","0","0","0.0567052","-0.984641","0.165128","-0.305248","-0.174572","-0.936135","0.950583","0.00267881","-0.310458"
"9","333446490859161","9.14525","0.68866","-4.35852","0","0","0","0.0520948","-0.987207","0.150695","-0.315317","-0.159441","-0.935497","0.947556","0.00121778","-0.319589"
"9","333446507613311","14.5479","2.66196","0.488525","0","0","0","0.0663142","-0.98872","0.134296","-0.287177","-0.14781","-0.946405","0.955579","0.0241934","-0.293739"
"9","333446524367462","14.5479","2.66196","0.488525","0","0","0","0.0663142","-0.98872","0.134296","-0.287177","-0.14781","-0.946405","0.955579","0.0241934","-0.293739"
"9","333446541152130","14.5479","2.66196","0.488525","0","0","0","0.0663142","-0.98872","0.134296","-0.287177","-0.14781","-0.946405","0.955579","0.0241934","-0.293739"
"9","333446557448517","14.2414","3.02597","0.316101","0","0","0","0.0684238","-0.991136","0.113877","-0.262756","-0.128018","-0.956332","0.962433","0.0355139","-0.269187"
"9","333446574751983","13.2643","1.20593","-1.94456","0","0","0","0.0797411","-0.98993","0.116961","-0.241301","-0.133015","-0.961291","0.967169","0.0484316","-0.249478"
"9","333446591536651","12.8045","-2.3192","-4.28189","0","0","0","0.07223","-0.993496","0.0880271","-0.237507","-0.102852","-0.965926","0.968697","0.0488618","-0.243391"
"9","333446608321319","12.1723","-3.66028","-6.19771","0","0","0","0.0804227","-0.979394","0.185258","-0.239705","-0.199409","-0.950146","0.967509","0.0320061","-0.250803"
"9","333446625105987","11.3484","-2.37666","-4.79916","0","0","0","0.0614977","-0.981561","0.180988","-0.258062","-0.190802","-0.9471","0.964169","0.0115384","-0.265038"
"9","333446641921173","9.50926","-0.844009","-4.89494","0","0","0","0.0503172","-0.982514","0.179262","-0.269133","-0.186188","-0.944935","0.961788","-0.000698672","-0.273795"
"9","333446658126007","9.73917","0.49707","-4.10945","0","0","0","0.0635765","-0.97133","0.229076","-0.277175","-0.237696","-0.930954","0.958714","-0.00430735","-0.28434"
"9","333446675459991","10.1798","1.34004","-2.51932","0","0","0","0.0412091","-0.989319","0.139818","-0.285687","-0.145762","-0.947173","0.957436","-0.000912039","-0.288643"
"9","333446692214142","11.0419","0.918564","-3.64966","0","0","0","0.0405539","-0.992535","0.115017","-0.284185","-0.121816","-0.950999","0.957911","0.0058805","-0.287004"
"9","333446709059845","12.1723","-0.537476","-5.16316","0","0","0","0.0327183","-0.996625","0.0752835","-0.287184","-0.0815218","-0.9544","0.957317","0.00960618","-0.288882"
"9","333446725844513","11.4826","-0.824844","-5.54633","0","0","0","0.0360663","-0.994871","0.094501","-0.293899","-0.10094","-0.950492","0.955156","0.00650703","-0.296032"
"9","333446742598663","10.3714","-0.844009","-5.48886","0","0","0","0.0523762","-0.986169","0.157253","-0.301079","-0.165735","-0.939086","0.95216","0.00184029","-0.305595"
"9","333446759413849","9.24104","-0.345886","-4.87579","0","0","0","0.0443047","-0.98911","0.140352","-0.31245","-0.147161","-0.938466","0.948901","-0.00227442","-0.315567"
"9","333446776167999","8.2065","0.248016","-4.55009","0","0","0","0.0513918","-0.985625","0.160944","-0.31998","-0.168911","-0.932245","0.946029","-0.00358903","-0.324061"
"9","333446792403350","7.72754","0.439606","-4.26273","0","0","0","0.0511067","-0.98717","0.151271","-0.328168","-0.159657","-0.931029","0.943236","-0.00206034","-0.332117"
"9","333446809767852","7.67006","0.516235","-3.4964","0","0","0","0.0614741","-0.983584","0.169656","-0.33315","-0.18045","-0.925445","0.940868","0.000370011","-0.338774"
"9","333446826522003","7.49763","0.707825","-3.07491","0","0","0","0.0576614","-0.987102","0.149351","-0.337045","-0.160064","-0.927782","0.939721","0.00315926","-0.341927"
"9","333446843337188","6.98036","1.14845","-2.74922","0","0","0","0.0658082","-0.985028","0.159337","-0.337327","-0.172243","-0.925496","0.939085","0.00715659","-0.343612"
"9","333446860091339","7.09532","1.47415","-2.55763","0","0","0","0.0587379","-0.990855","0.121475","-0.339321","-0.134256","-0.93104","0.938835","0.0134685","-0.344104"
"9","333446876845489","7.36353","1.56995","-2.86417","0","0","0","0.0848744","-0.981521","0.1715","-0.334273","-0.190195","-0.923086","0.938647","0.0210184","-0.344239"
"9","333446893691192","7.5168","1.76152","-2.95996","0","0","0","0.0603431","-0.994918","0.0806071","-0.341077","-0.0964455","-0.935074","0.938096","0.028932","-0.345164"
"9","333446910506378","7.36353","2.12553","-2.74922","0","0","0","0.079916","-0.990862","0.108657","-0.338704","-0.129513","-0.931937","0.937493","0.0376741","-0.345959"
"9","333446927230011","7.26775","2.37459","-2.02121","0","0","0","0.0878497","-0.991103","0.0999847","-0.337797","-0.124066","-0.933007","0.93711","0.0481898","-0.34569"
"9","333446944014679","6.73131","2.43207","-1.54225","0","0","0","0.0877211","-0.993915","0.0666175","-0.336119","-0.0924859","-0.937267","0.937725","0.0598267","-0.342187"
"9","333446960799347","6.55888","2.33627","-1.31235","0","0","0","0.0961507","-0.993751","0.0566955","-0.331033","-0.0856424","-0.939725","0.938708","0.0715871","-0.337199"
"9","333446977614532","7.26775","1.89563","-1.15909","0","0","0","0.0865217","-0.996248","-0.00198966","-0.330024","-0.0267773","-0.943593","0.939999","0.0822979","-0.331103"
"9","333446994338165","8.4364","0.63118","-1.17824","0","0","0","0.100102","-0.994839","0.0165805","-0.319989","-0.0479677","-0.946206","0.942118","0.0894119","-0.323139"
"9","333447011153350","8.28313","0.305496","-2.78754","0","0","0","0.0784793","-0.995889","-0.0452346","-0.317855","0.01801","-0.947968","0.944886","0.0887739","-0.315135"
"9","333447027938018","7.42101","1.32088","-5.22064","0","0","0","0.0723911","-0.995789","-0.0562474","-0.320747","0.0301563","-0.946685","0.944395","0.0865727","-0.317213"
"9","333447044753204","7.89996","2.58533","-4.97159","0","0","0","0.0835883","-0.995838","-0.0363165","-0.33436","0.00630315","-0.942424","0.938731","0.0909184","-0.332442"
"9","333447061537872","11.8849","2.20216","-0.354431","0","0","0","0.0817601","-0.994128","-0.0708878","-0.344531","0.038549","-0.937983","0.935208","0.101113","-0.339356"
"9","333447077742706","14.3946","-1.0739","2.05951","0","0","0","0.0726012","-0.991007","-0.112403","-0.324918","0.0830508","-0.942089","0.942951","0.104918","-0.315966"
"9","333447095076690","15.0077","-5.84431","1.02496","0","0","0","0.0627104","-0.99354","-0.0945782","-0.288096","0.0727099","-0.954837","0.955546","0.0871258","-0.281675"
"9","333447111525665","15.3334","-7.95174","0.795059","0","0","0","0.0442559","-0.998968","-0.0102451","-0.253644","-0.0013166","-0.967297","0.966285","0.0454072","-0.25344"
"9","333447128737579","14.318","-4.94388","0.6418","0","0","0","0.0369839","-0.9865","0.15953","-0.225453","-0.163761","-0.960392","0.973552","-0.000447516","-0.228466"
"9","333447145491729","12.4788","3.14091","-3.8604","0","0","0","0.0466064","-0.954998","0.292929","-0.208214","-0.296094","-0.932188","0.976972","-0.0175459","-0.212643"
"9","333447162306915","12.383","5.93803","-8.68829","0","0","0","0.0384195","-0.986393","0.159851","-0.218306","-0.16439","-0.961935","0.975124","0.00206067","-0.221652"
"9","333447179061065","11.9998","5.8614","-9.58873","0","0","0","0.0642127","-0.991098","0.116627","-0.245814","-0.128976","-0.960698","0.967188","0.0330204","-0.251908"
"9","333447195845733","10.9461","3.08345","-6.15939","0","0","0","0.0832875","-0.993611","0.0761578","-0.273545","-0.0962832","-0.957028","0.958246","0.0588758","-0.279817"
"9","333447212660919","10.563","-0.269257","-5.48886","0","0","0","0.088636","-0.994578","0.0543823","-0.288428","-0.077886","-0.954328","0.95339","0.0689025","-0.293768"
"9","333447229445587","10.199","-2.07013","-4.43515","0","0","0","0.0902861","-0.992846","0.0781357","-0.296381","-0.101687","-0.949641","0.950793","0.0625815","-0.303441"
"9","333447246169220","10.448","-1.70613","-3.4964","0","0","0","0.0804257","-0.992645","0.0904838","-0.301841","-0.11077","-0.946901","0.94996","0.0488435","-0.308529"
"9","333447262984405","10.2181","0.133072","-4.24356","0","0","0","0.0844967","-0.987022","0.13656","-0.30028","-0.155903","-0.941024","0.950101","0.0385071","-0.309556"
"9","333447279769073","9.37515","2.27879","-6.12108","0","0","0","0.0841899","-0.987274","0.134916","-0.305768","-0.154461","-0.939493","0.948377","0.0378429","-0.31488"
"9","333447296553741","9.08778","2.16385","-6.21687","0","0","0","0.0704762","-0.995624","0.0613677","-0.323782","-0.0810221","-0.942656","0.943503","0.0465651","-0.328075"
"9","333447313368927","8.91536","1.11014","-5.89117","0","0","0","0.0745113","-0.996147","0.0462482","-0.33801","-0.0688604","-0.93862","0.938188","0.0543055","-0.341838"
"9","333447329573761","8.66629","0.171387","-4.32021","0","0","0","0.0526994","-0.998398","-0.0206126","-0.353874","0.000630844","-0.935293","0.933807","0.0565836","-0.353274"
"9","333447346327911","8.2065","0.305496","-3.80293","0","0","0","0.0744265","-0.996425","0.039975","-0.356159","-0.0640024","-0.932231","0.931457","0.0551453","-0.359649"
"9","333447363112579","7.55511","0.68866","-3.41975","0","0","0","0.0578048","-0.998327","-0.00145509","-0.362146","-0.0196106","-0.931915","0.930327","0.0543962","-0.362674"
"9","333447379897247","7.44017","0.861084","-3.09407","0","0","0","0.0584794","-0.998282","-0.00363607","-0.364082","-0.0179362","-0.931194","0.929529","0.0557795","-0.364505"
"9","333447396681915","7.40184","0.592865","-3.4006","0","0","0","0.0650648","-0.997854","0.0073814","-0.364407","-0.030646","-0.930735","0.928964","0.0578682","-0.365619"
"9","333447414015899","7.42101","0.0947571","-3.68797","0","0","0","0.0428838","-0.997849","-0.0495753","-0.370175","0.0302197","-0.92847","0.927972","0.0581679","-0.368083"
"9","333447430770050","7.42101","-0.767365","-2.76837","0","0","0","0.0362548","-0.997667","-0.0578429","-0.372899","0.0401948","-0.927001","0.927163","0.0551778","-0.370572"
"9","333447447585235","7.1911","-1.41875","-2.481","0","0","0","0.0461047","-0.998831","-0.0144957","-0.370248","-0.00360894","-0.928926","0.927788","0.0481949","-0.369982"
"9","333447464369903","7.09532","-1.85939","-1.82962","0","0","0","0.0419161","-0.999117","0.00295311","-0.367642","-0.018172","-0.92979","0.929022","0.0378875","-0.368079"
"9","333447481154571","6.67383","-1.74445","-0.948334","0","0","0","0.0601623","-0.994727","0.0830636","-0.358989","-0.0992083","-0.928054","0.931401","0.0260149","-0.363065"
"9","333447497908722","6.90373","-1.57202","-0.775909","0","0","0","0.0349266","-0.99816","0.049563","-0.353533","-0.0587267","-0.933577","0.93477","0.0150845","-0.354934"
"9","333447514693390","7.78502","-1.41875","-0.871704","0","0","0","0.0426292","-0.994004","0.100691","-0.342873","-0.109217","-0.933011","0.938414","0.00524946","-0.345473"
"9","333447531478058","8.28313","-1.13138","-1.12076","0","0","0","0.0416178","-0.991092","0.126508","-0.332661","-0.133138","-0.933601","0.942128","-0.0032298","-0.335239"
"9","333447548354278","8.12987","-0.72905","-1.52309","0","0","0","0.0332904","-0.991524","0.125583","-0.324172","-0.129571","-0.937082","0.945412","-0.00951461","-0.325738"
"9","333447565138946","7.67006","-0.0585175","-2.28943","0","0","0","0.0388629","-0.986954","0.156244","-0.317146","-0.16046","-0.934704","0.94758","-0.0132268","-0.319245"
"9","333447581893097","7.95744","0.74614","-3.61134","0","0","0","0.0407036","-0.986257","0.160126","-0.31623","-0.164737","-0.93427","0.947809","-0.0126086","-0.318589"
"9","333447598677765","8.97282","1.34004","-3.05576","0","0","0","0.0469908","-0.986211","0.158682","-0.319899","-0.165349","-0.932912","0.946286","-0.00692394","-0.323258"
"9","333447615462433","11.4059","0.918564","-1.81047","0","0","0","0.0596949","-0.983297","0.171938","-0.316559","-0.182002","-0.930949","0.946693","0.00114445","-0.322136"
"9","333447632247100","14.0498","0.861084","-0.124527","0","0","0","0.0541657","-0.987769","0.146213","-0.30474","-0.155794","-0.939607","0.950894","0.00633766","-0.309451"
"9","333447649062286","14.7203","2.48953","0.335266","0","0","0","0.0798636","-0.970704","0.226616","-0.274804","-0.239973","-0.931072","0.958178","0.0120838","-0.285919"
"9","333447665846954","14.0306","3.83061","0.852539","0","0","0","0.0671117","-0.986594","0.148756","-0.253379","-0.161057","-0.953866","0.965036","0.0263237","-0.260791"
"9","333447682601104","12.0956","2.43207","-2.36606","0","0","0","0.0726687","-0.991361","0.109194","-0.231837","-0.123275","-0.964912","0.970036","0.0448036","-0.238793"
"9","333447699385772","11.176","-0.844009","-5.12485","0","0","0","0.0797666","-0.991186","0.105769","-0.230083","-0.121549","-0.96555","0.969896","0.052683","-0.237751"
"9","333447715590606","9.79663","-3.18132","-7.32805","0","0","0","0.0647581","-0.994389","0.0836484","-0.24639","-0.0971621","-0.964288","0.967005","0.0418353","-0.251299"
"9","333447732924591","10.2948","-2.05098","-6.27435","0","0","0","0.0441854","-0.996458","0.0715485","-0.272474","-0.0809234","-0.958754","0.961148","0.0228678","-0.275085"
"9","333447749678741","9.77748","-0.422516","-3.53471","0","0","0","0.0361635","-0.996186","0.0794125","-0.28753","-0.0864764","-0.95386","0.957089","0.0116615","-0.28956"
"9","333447765975128","11.1377","0.209702","-3.01744","0","0","0","0.0332921","-0.996424","0.0776642","-0.291238","-0.0840068","-0.952955","0.956071","0.0091071","-0.292993"
"9","333447783248077","12.9577","0.113907","-2.46185","0","0","0","0.0212811","-0.999078","0.0372815","-0.289333","-0.0418486","-0.956313","0.956992","0.00956463","-0.289956"
"9","333447800032745","13.8965","-0.671585","-4.45432","0","0","0","0.0165614","-0.999567","0.0243316","-0.283996","-0.0280353","-0.958416","0.958682","0.00896268","-0.284337"
"9","333447816908966","14.2222","-1.24632","-5.54633","0","0","0","0.0184679","-0.998742","0.0466252","-0.285793","-0.0499606","-0.956988","0.958113","0.0043484","-0.286356"
"9","333447833693634","12.4788","-0.920639","-6.37013","0","0","0","0.0157055","-0.998195","0.0579729","-0.292704","-0.0600299","-0.954317","0.956074","-0.00198085","-0.293119"
"9","333447850447784","9.75832","-0.59494","-5.73792","0","0","0","0.011628","-0.998318","0.0567878","-0.304572","-0.0576291","-0.950744","0.952418","-0.00624074","-0.30473"
"9","333447867201934","8.05322","-0.0393524","-3.70714","0","0","0","0.0426512","-0.986923","0.155448","-0.313259","-0.160954","-0.935929","0.948709","-0.00877706","-0.316027"
"9","333447883437286","7.78502","0.228867","-3.11322","0","0","0","0.0248754","-0.994441","0.102318","-0.321688","-0.104869","-0.94102","0.946519","-0.00950635","-0.322508"
"9","333447900252472","7.82333","0.477921","-3.01744","0","0","0","0.0341546","-0.991801","0.123147","-0.323199","-0.127559","-0.937695","0.945714","-0.0077745","-0.324906"
"9","333447917586456","7.76585","0.573715","-2.65343","0","0","0","0.0516098","-0.985037","0.164432","-0.322073","-0.172271","-0.930909","0.945307","-0.00491519","-0.326145"
"9","333447934371124","7.53595","0.61203","-2.8067","0","0","0","0.0359889","-0.993322","0.109621","-0.32442","-0.115364","-0.938852","0.945228","-0.0017749","-0.326405"
"9","333447951155792","6.96121","0.956879","-2.8067","0","0","0","0.0484389","-0.989762","0.134255","-0.323861","-0.142715","-0.935279","0.944864","0.00182383","-0.327458"
"9","333447967360626","6.71214","1.11014","-3.09407","0","0","0","0.070662","-0.980811","0.181705","-0.321856","-0.194836","-0.926525","0.944148","0.00698723","-0.329447"
"9","333447984694610","6.17572","1.28256","-2.97913","0","0","0","0.0642614","-0.987525","0.143755","-0.327084","-0.156938","-0.931872","0.942808","0.0128634","-0.333088"
"9","333448000929962","5.60097","1.79984","-2.30858","0","0","0","0.0762034","-0.985082","0.154295","-0.328511","-0.170909","-0.928908","0.941421","0.0200984","-0.336634"
"9","333448018233429","5.62013","2.14468","-1.52309","0","0","0","0.0716706","-0.991117","0.112031","-0.33135","-0.1296","-0.934565","0.940782","0.0298592","-0.337695"
"9","333448035018097","6.04161","2.22133","-0.986664","0","0","0","0.0675941","-0.995459","0.0670238","-0.33047","-0.0857238","-0.939915","0.941393","0.0413834","-0.334764"
"9","333448051863800","6.9229","2.01057","-0.737595","0","0","0","0.0868079","-0.992191","0.0895674","-0.321121","-0.112976","-0.940275","0.943051","0.0528614","-0.32842"
"9","333448068678985","7.5168","1.87648","-0.641815","0","0","0","0.0791437","-0.996107","0.0388196","-0.315548","-0.0619725","-0.946884","0.945603","0.0626905","-0.319224"
"9","333448085433136","7.05699","1.55078","-0.75676","0","0","0","0.0909294","-0.994605","0.0499357","-0.303831","-0.0754599","-0.949733","0.948377","0.0711866","-0.309053"
"9","333448102156768","5.94582","1.2251","-2.05952","0","0","0","0.0939727","-0.994733","0.0409216","-0.296331","-0.0671877","-0.952719","0.950451","0.0774033","-0.301084"
"9","333448119002472","4.94958","1.43584","-5.12485","0","0","0","0.0960705","-0.994886","0.0311685","-0.30021","-0.0588163","-0.952058","0.949023","0.0821076","-0.304325"
"9","333448135787140","8.45555","1.78069","-4.81831","0","0","0","0.107327","-0.993374","0.0410876","-0.319833","-0.0736264","-0.944609","0.941375","0.0882412","-0.325616"
"9","333448152602325","15.525","0.74614","-0.373596","0","0","0","0.0955731","-0.995392","-0.00783061","-0.330598","-0.0243205","-0.943458","0.93892","0.092758","-0.331399"
"9","333448169386993","18.2263","-2.18509","0.890854","0","0","0","0.0919202","-0.995764","0.00225396","-0.301147","-0.0299567","-0.953107","0.949137","0.086931","-0.302625"
"9","333448186141143","18.1305","-5.38452","-1.00581","0","0","0","0.0771315","-0.996157","0.0414985","-0.265727","-0.0606563","-0.962138","0.960958","0.0631839","-0.269384"
"9","333448202925811","16.5404","-5.05882","-1.40814","0","0","0","0.0692993","-0.984564","0.160719","-0.24069","-0.172848","-0.955087","0.968125","0.0275033","-0.248953"
"9","333448219740997","13.6666","-1.09306","-1.40814","0","0","0","0.0606433","-0.966905","0.247823","-0.227193","-0.255134","-0.939835","0.97196","0.000690974","-0.235146"
"9","333448236525665","12.4405","2.7386","-3.22818","0","0","0","0.0636548","-0.956684","0.284084","-0.217785","-0.291117","-0.931569","0.973919","-0.00257047","-0.226882"
"9","333448253279815","11.4826","3.94557","-7.00237","0","0","0","0.0672748","-0.97071","0.230645","-0.221538","-0.239931","-0.945174","0.972828","0.0124898","-0.231191"
"9","333448270064483","12.0381","2.183","-7.46216","0","0","0","0.082198","-0.977001","0.196757","-0.23995","-0.211019","-0.947573","0.967299","0.0306766","-0.251777"
"9","333448286849151","9.27936","-0.537476","-5.54633","0","0","0","0.0967829","-0.97246","0.212025","-0.255273","-0.230152","-0.939077","0.962013","0.0367625","-0.270517"
"9","333448303633819","8.30229","-1.05475","-3.80293","0","0","0","0.105044","-0.963491","0.246272","-0.265739","-0.265832","-0.926669","0.958305","0.0318965","-0.283962"
"9","333448320449005","8.97282","-0.441681","-1.98289","0","0","0","0.0924575","-0.97093","0.220788","-0.275274","-0.23802","-0.931435","0.956909","0.0253407","-0.289279"
"9","333448337203155","10.1223","0.841919","-2.90248","0","0","0","0.0970916","-0.963697","0.248721","-0.270194","-0.266038","-0.925321","0.957898","0.0226379","-0.286215"
"9","333448353957306","11.0611","2.35542","-7.09814","0","0","0","0.105898","-0.958634","0.264207","-0.268769","-0.283406","-0.920567","0.957366","0.0264755","-0.287663"
"9","333448370192657","11.3101","2.20216","-7.32805","0","0","0","0.094328","-0.978616","0.18279","-0.288356","-0.202595","-0.935845","0.952866","0.0355679","-0.301301"
"9","333448386977325","11.2143","1.85732","-6.84909","0","0","0","0.110103","-0.975749","0.189184","-0.302837","-0.214225","-0.928653","0.946661","0.0449553","-0.31908"
"9","333448404372345","10.5055","0.861084","-5.68044","0","0","0","0.13067","-0.966136","0.222503","-0.309955","-0.252987","-0.916474","0.941729","0.0507894","-0.332517"
"9","333448421157013","8.62798","-0.345886","-4.12862","0","0","0","0.111296","-0.98122","0.157546","-0.326355","-0.185826","-0.926801","0.938672","0.0517336","-0.340908"
"9","333448437941681","7.5168","-0.614105","-3.82208","0","0","0","0.11997","-0.974292","0.190688","-0.327806","-0.220178","-0.91873","0.937097","0.0477117","-0.345794"
"9","333448454695831","6.84625","-0.135147","-3.4964","0","0","0","0.115027","-0.97545","0.18779","-0.33392","-0.216013","-0.917516","0.935556","0.0428322","-0.35057"
"9","333448471480499","6.5014","0.573715","-3.18987","0","0","0","0.0979048","-0.984701","0.14415","-0.343489","-0.16938","-0.923756","0.93404","0.0409264","-0.354817"
"9","333448488295684","6.40561","0.74614","-3.28566","0","0","0","0.10615","-0.981395","0.159988","-0.344893","-0.187247","-0.919776","0.93262","0.0424552","-0.358353"
"9","333448505049835","6.73131","0.324646","-3.07491","0","0","0","0.0974946","-0.98678","0.129458","-0.351333","-0.155828","-0.923192","0.931161","0.0445234","-0.361881"
"9","333448521865020","6.90373","-0.250092","-2.44269","0","0","0","0.10172","-0.984814","0.140693","-0.351993","-0.167908","-0.920819","0.930459","0.0441428","-0.363727"
"9","333448538619171","6.73131","-0.920639","-2.00204","0","0","0","0.105378","-0.981328","0.160908","-0.349238","-0.188022","-0.917976","0.93109","0.0405391","-0.36253"
"9","333448555403839","6.42477","-1.55286","-1.59972","0","0","0","0.106687","-0.976703","0.186197","-0.344854","-0.21199","-0.914405","0.932574","0.0333439","-0.359436"
"9","333448572188507","6.42477","-1.59117","-1.52309","0","0","0","0.0915873","-0.979862","0.177433","-0.344117","-0.198348","-0.917737","0.934449","0.0229955","-0.355353"
"9","333448588973175","7.07616","-0.939789","-1.58057","0","0","0","0.0884803","-0.975907","0.199442","-0.339621","-0.217786","-0.915001","0.936391","0.013225","-0.350708"
"9","333448605757843","7.76585","-0.230942","-1.61888","0","0","0","0.0943933","-0.967329","0.235297","-0.332183","-0.25341","-0.908536","0.93848","0.0075981","-0.345251"
"9","333448622542511","7.82333","0.075592","-1.17824","0","0","0","0.0994732","-0.960614","0.259471","-0.323491","-0.277819","-0.904528","0.940988","0.00603976","-0.338386"
"9","333448639327179","7.26775","-0.0393524","-1.73383","0","0","0","0.0985774","-0.959478","0.263977","-0.315187","-0.281716","-0.906252","0.943896","0.00613374","-0.330186"
"9","333448656142364","7.26775","-0.173462","-3.26649","0","0","0","0.0945047","-0.961709","0.257264","-0.312855","-0.274018","-0.909415","0.945088","0.00545785","-0.326771"
"9","333448672896515","8.74294","0.458755","-3.8604","0","0","0","0.0947534","-0.96196","0.256233","-0.317381","-0.273151","-0.908107","0.943552","0.00472246","-0.33119"
"9","333448689650665","11.1377","0.880249","-2.51932","0","0","0","0.113424","-0.947595","0.298662","-0.314039","-0.319384","-0.894077","0.94261","0.00761801","-0.333807"
"9","333448706404815","14.5096","1.1293","-1.08244","0","0","0","0.120234","-0.941378","0.315201","-0.301663","-0.337136","-0.891818","0.945803","0.0121424","-0.324514"
"9","333448723189483","14.9694","2.87271","-0.277802","0","0","0","0.118821","-0.942339","0.312855","-0.280685","-0.334114","-0.899769","0.952416","0.0190978","-0.304201"
"9","333448740004669","13.9348","3.77315","-0.69928","0","0","0","0.107616","-0.962819","0.247788","-0.262006","-0.267891","-0.927139","0.959047","0.0348525","-0.281094"
"9","333448756758819","12.0573","0.841919","-2.61511","0","0","0","0.105806","-0.974768","0.196553","-0.248648","-0.217318","-0.9439","0.962797","0.0509981","-0.265368"
"9","333448773574005","10.2948","-2.07013","-4.85663","0","0","0","0.104618","-0.974886","0.196602","-0.246615","-0.216943","-0.944519","0.96345","0.0503285","-0.263118"
"9","333448790358673","10.0457","-3.0089","-6.77246","0","0","0","0.0928791","-0.975589","0.198995","-0.26184","-0.216757","-0.940456","0.960632","0.0352439","-0.27558"
"9","333448807143341","9.73917","-1.22717","-5.04822","0","0","0","0.0754089","-0.979891","0.184734","-0.284708","-0.198708","-0.937794","0.955644","0.0181227","-0.293967"
"9","333448823958526","9.89243","0.516235","-4.24356","0","0","0","0.0657843","-0.983406","0.16907","-0.296822","-0.181052","-0.937612","0.952664","0.0114966","-0.303807"
"9","333448840743194","11.4634","1.2251","-3.11322","0","0","0","0.0801643","-0.97583","0.203296","-0.297799","-0.218084","-0.929384","0.951257","0.013962","-0.308084"
"9","333448857466827","12.4788","-0.441681","-7.78786","0","0","0","0.0828346","-0.979305","0.184661","-0.305135","-0.201322","-0.930786","0.948699","0.0207545","-0.315497"
"9","333448874251495","12.4788","-0.441681","-7.78786","0","0","0","0.0828346","-0.979305","0.184661","-0.305135","-0.201322","-0.930786","0.948699","0.0207545","-0.315497"
"9","333448891036163","12.4788","-0.441681","-7.78786","0","0","0","0.0828346","-0.979305","0.184661","-0.305135","-0.201322","-0.930786","0.948699","0.0207545","-0.315497"
"9","333448907302032","11.291","-0.556625","-6.56172","0","0","0","0.0634867","-0.989757","0.127871","-0.325226","-0.141654","-0.934967","0.943503","0.0177711","-0.330887"
"9","333448924086700","8.93451","-0.403366","-4.33936","0","0","0","0.0803339","-0.980286","0.180514","-0.332357","-0.197078","-0.922333","0.939726","0.0140997","-0.341637"
"9","333448941481720","7.22942","-0.115982","-3.11322","0","0","0","0.090283","-0.973098","0.211965","-0.334423","-0.230098","-0.913902","0.938089","0.011624","-0.3462"
"9","333448958205352","6.8271","-0.269257","-2.73006","0","0","0","0.0917583","-0.971683","0.217744","-0.336068","-0.236055","-0.911776","0.937357","0.0104862","-0.348212"
"9","333448975051056","7.55511","-0.805695","-2.8067","0","0","0","0.0934457","-0.969167","0.228","-0.336346","-0.246268","-0.908968","0.937091","0.00825237","-0.348988"
"9","333448991835724","8.34061","-0.920639","-2.88333","0","0","0","0.101252","-0.959656","0.262314","-0.333591","-0.281154","-0.899816","0.937265","0.00360257","-0.3486"
"9","333449008620392","7.80417","-0.211777","-3.1707","0","0","0","0.0841688","-0.969754","0.229113","-0.337798","-0.244083","-0.909019","0.937448","-0.000882935","-0.348125"
"9","333449025374542","7.07616","0.68866","-3.11322","0","0","0","0.0960937","-0.960402","0.261522","-0.336121","-0.278613","-0.899665","0.936904","-0.00145091","-0.349585"
"9","333449042159210","6.15656","1.4933","-3.03659","0","0","0","0.104886","-0.956809","0.271139","-0.336144","-0.290705","-0.895822","0.935952","0.0028173","-0.352116"
"9","333449058974395","5.5818","2.16385","-2.51932","0","0","0","0.103057","-0.965194","0.240376","-0.340342","-0.261293","-0.903268","0.934637","0.0112784","-0.355424"
"9","333449075698028","5.17949","2.68112","-1.81047","0","0","0","0.123556","-0.957579","0.260338","-0.335731","-0.287215","-0.897102","0.933819","0.0234383","-0.356977"
"9","333449092482696","5.27528","2.83438","-1.13992","0","0","0","0.131076","-0.961669","0.240856","-0.332642","-0.271531","-0.903117","0.9339","0.0382583","-0.355483"
"9","333449108718048","5.79256","2.48953","-0.910019","0","0","0","0.130166","-0.971348","0.198847","-0.329735","-0.231547","-0.915238","0.935057","0.0535663","-0.350427"
"9","333449125533233","6.55888","1.95311","-1.08244","0","0","0","0.132796","-0.975782","0.173824","-0.323582","-0.20845","-0.922953","0.936835","0.0663179","-0.343427"
"9","333449142867218","8.09155","1.26341","-1.36983","0","0","0","0.134031","-0.978435","0.157163","-0.316905","-0.192585","-0.928699","0.938939","0.0746686","-0.335883"
"9","333449159621368","8.53218","0.880249","-1.46562","0","0","0","0.142157","-0.974123","0.175713","-0.305168","-0.211999","-0.928401","0.941628","0.0783569","-0.327408"
"9","333449176467071","7.63174","1.01434","-3.30481","0","0","0","0.135098","-0.978843","0.153672","-0.301838","-0.18838","-0.934562","0.943739","0.0798733","-0.320902"
"9","333449193221222","6.48225","1.60826","-6.31267","0","0","0","0.126226","-0.985323","0.114913","-0.312969","-0.149478","-0.937927","0.941338","0.0824271","-0.327244"
"9","333449210005890","7.70837","2.29796","-6.04445","0","0","0","0.146089","-0.979078","0.141646","-0.32983","-0.183195","-0.926095","0.932669","0.0885729","-0.349692"
"9","333449226821075","13.2068","2.31711","-0.143692","0","0","0","0.145992","-0.983163","0.109894","-0.343778","-0.154579","-0.926241","0.927633","0.0974449","-0.360557"
"9","333449243605743","16.4637","-0.0010376","2.2511","0","0","0","0.157566","-0.977022","0.143532","-0.309603","-0.186895","-0.932318","0.93772","0.102463","-0.331937"
"9","333449260298858","17.4025","-4.34998","0.220322","0","0","0","0.128195","-0.985117","0.114499","-0.277233","-0.146445","-0.949577","0.952212","0.089988","-0.29188"
"9","333449277205597","15.6016","-5.48032","-2.09784","0","0","0","0.127225","-0.957261","0.259742","-0.240983","-0.283855","-0.928091","0.962154","0.0554826","-0.266797"
"9","333449293929229","13.2451","-0.479996","-4.58841","0","0","0","0.103352","-0.949584","0.295988","-0.238201","-0.312552","-0.91955","0.965701","0.0245325","-0.258494"
"9","333449310713897","12.5171","4.118","-5.3739","0","0","0","0.119564","-0.926357","0.357165","-0.236079","-0.375954","-0.896061","0.96435","0.0228174","-0.263644"
"9","333449327529083","12.0573","5.11423","-6.63835","0","0","0","0.138342","-0.931039","0.33768","-0.240612","-0.362339","-0.900453","0.960712","0.0433205","-0.274145"
"9","333449344283233","10.5821","3.1026","-6.58087","0","0","0","0.148445","-0.949636","0.275964","-0.256958","-0.306511","-0.916528","0.954954","0.0651431","-0.289517"
"9","333449361067901","8.53218","0.880249","-5.94865","0","0","0","0.139803","-0.971067","0.193608","-0.281543","-0.226441","-0.932447","0.94931","0.07585","-0.305054"
"9","333449377852569","8.74294","-0.958954","-5.50801","0","0","0","0.150288","-0.964703","0.216246","-0.292258","-0.252306","-0.922457","0.944457","0.0754343","-0.319861"
"9","333449394637237","10.5246","-1.61034","-4.41599","0","0","0","0.156992","-0.953714","0.25648","-0.298415","-0.293371","-0.90823","0.941436","0.0660472","-0.33066"
"9","333449411452423","11.6167","0.324646","-5.18233","0","0","0","0.137114","-0.96381","0.228625","-0.30952","-0.260935","-0.914391","0.940955","0.0546116","-0.334096"
"9","333449428267608","10.5821","1.76152","-6.27435","0","0","0","0.140589","-0.960954","0.23833","-0.313971","-0.271569","-0.909765","0.938966","0.0530742","-0.339892"
"9","333449444991241","9.79663","2.02974","-6.15939","0","0","0","0.143323","-0.964894","0.220085","-0.325605","-0.255973","-0.910197","0.93458","0.0587914","-0.350861"
"9","333449461775909","9.27936","1.4933","-5.58464","0","0","0","0.140179","-0.972733","0.184772","-0.339682","-0.222536","-0.913835","0.930036","0.0653371","-0.361614"
"9","333449478591095","8.70461","0.439606","-4.97159","0","0","0","0.142799","-0.973823","0.176854","-0.348199","-0.216692","-0.912032","0.92648","0.0686571","-0.370028"
"9","333449495375763","8.28313","-0.211777","-4.55009","0","0","0","0.146959","-0.971207","0.187508","-0.353389","-0.228607","-0.907114","0.923861","0.067045","-0.37681"
"9","333449512129913","7.78502","0.0947571","-3.74545","0","0","0","0.147718","-0.969201","0.19705","-0.357588","-0.238095","-0.903018","0.922123","0.0629294","-0.381746"
"9","333449528914581","7.72754","0.68866","-3.11322","0","0","0","0.121248","-0.983422","0.134831","-0.36899","-0.170753","-0.913613","0.921491","0.0610228","-0.383577"
"9","333449545699249","7.21027","1.01434","-3.15155","0","0","0","0.111329","-0.987993","0.107123","-0.37208","-0.141392","-0.917368","0.9215","0.0622707","-0.383354"
"9","333449562514434","6.80794","0.228867","-2.97913","0","0","0","0.114785","-0.987299","0.109839","-0.372016","-0.145246","-0.916792","0.921102","0.0643723","-0.383964"
"9","333449579299102","6.88457","-0.72905","-2.86417","0","0","0","0.112569","-0.987635","0.109111","-0.373189","-0.143792","-0.916544","0.920901","0.0624552","-0.384762"
"9","333449596053253","6.84625","-1.38043","-2.38521","0","0","0","0.0887642","-0.993663","0.0689582","-0.378456","-0.097685","-0.92045","0.921353","0.0556054","-0.384729"
"9","333449612837921","6.84625","-1.70613","-1.82962","0","0","0","0.113237","-0.981108","0.156856","-0.36801","-0.188059","-0.910606","0.922901","0.0453902","-0.382353"
"9","333449629622589","6.67383","-1.51454","-1.27403","0","0","0","0.0914293","-0.98663","0.134917","-0.367847","-0.159364","-0.916129","0.925381","0.0341323","-0.377499"
"9","333449646346222","6.11824","-1.24632","-1.21655","0","0","0","0.0904929","-0.98255","0.162499","-0.360284","-0.184416","-0.914432","0.928443","0.0242037","-0.370685"
"9","333449663191925","6.17572","-0.997269","-1.6572","0","0","0","0.064899","-0.99043","0.121804","-0.359574","-0.137072","-0.922994","0.930857","0.0161039","-0.365029"
"9","333449679976593","7.15279","-0.671585","-1.46562","0","0","0","0.107104","-0.962026","0.251066","-0.34442","-0.272783","-0.898312","0.932686","0.00974055","-0.360557"
"9","333449696700225","8.34061","-0.135147","-1.31235","0","0","0","0.0852959","-0.973881","0.210429","-0.342962","-0.22699","-0.911511","0.935469","0.00557898","-0.353366"
"9","333449713545929","8.72377","-0.288422","-1.54225","0","0","0","0.0859174","-0.971115","0.222605","-0.333013","-0.238573","-0.912242","0.939","0.00424685","-0.343892"
"9","333449730330597","8.68546","-0.958954","-2.82585","0","0","0","0.0952502","-0.9602","0.26257","-0.321921","-0.279308","-0.904629","0.941963","0.00163928","-0.335712"
"9","333449747145782","9.18356","-1.38043","-4.39684","0","0","0","0.0928352","-0.957254","0.273945","-0.322404","-0.28921","-0.90134","0.942039","-0.004645","-0.335472"
"9","333449763899933","11.1569","-1.3996","-3.30481","0","0","0","0.0896076","-0.954817","0.283362","-0.328794","-0.296916","-0.896513","0.940141","-0.0128334","-0.340544"
"9","333449780684600","14.1264","-0.441681","-0.143692","0","0","0","0.0861186","-0.95018","0.299568","-0.322871","-0.311074","-0.893861","0.942517","-0.0197437","-0.333575"
"9","333449797499786","14.8353","2.45122","-0.354431","0","0","0","0.0973523","-0.929166","0.356614","-0.293423","-0.369185","-0.881819","0.951013","-0.0187917","-0.30858"
"9","333449814253936","15.1993","5.8614","-0.00958252","0","0","0","0.0972671","-0.939107","0.32957","-0.26845","-0.343622","-0.899921","0.95837","-0.000940442","-0.285527"
"9","333449831069122","14.0115","6.24457","-0.469391","0","0","0","0.108166","-0.953194","0.282349","-0.240715","-0.300676","-0.922849","0.96455","0.0318549","-0.261971"
"9","333449847853790","11.5784","-1.3996","-3.78377","0","0","0","0.112407","-0.967609","0.226049","-0.230152","-0.246657","-0.941377","0.966641","0.0537914","-0.250423"
"9","333449864607940","9.08778","-4.48409","-6.81078","0","0","0","0.0894412","-0.979915","0.17823","-0.244476","-0.195073","-0.949831","0.965521","0.0413809","-0.257013"
"9","333449881392608","7.97659","-4.92471","-8.55418","0","0","0","0.0954577","-0.956318","0.276305","-0.264376","-0.29196","-0.919165","0.959684","0.014693","-0.280697"
"9","333449898207794","8.72377","-2.24255","-7.07899","0","0","0","0.0605071","-0.973829","0.21908","-0.304472","-0.227029","-0.92507","0.950597","-0.0107305","-0.310241"
"9","333449914992462","11.0419","0.68866","-3.09407","0","0","0","0.0628687","-0.968462","0.241099","-0.32226","-0.248335","-0.913498","0.944561","-0.020266","-0.327709"
"9","333449931746612","12.8811","2.16385","-3.15155","0","0","0","0.0637318","-0.971333","0.229021","-0.318076","-0.23729","-0.917889","0.945921","-0.0143472","-0.324081"
"9","333449948531280","14.5862","1.37836","-5.87202","0","0","0","0.0427563","-0.989892","0.135221","-0.317032","-0.141793","-0.937756","0.947451","-0.00277454","-0.31989"
"9","333449965346466","14.567","0.592865","-6.81078","0","0","0","0.0540324","-0.987938","0.145117","-0.31999","-0.154796","-0.934689","0.945879","0.00406756","-0.324495"
"9","333449982131134","11.176","-0.269257","-5.89117","0","0","0","0.0691821","-0.98169","0.177478","-0.32536","-0.19038","-0.926227","0.943056","0.00633385","-0.332574"
"9","333449998915802","8.8004","-0.499161","-5.12485","0","0","0","0.0728343","-0.979641","0.187078","-0.333322","-0.2007","-0.921203","0.939995","0.004738","-0.341154"
"9","333450015669952","7.36353","-0.499161","-4.55009","0","0","0","0.0652342","-0.983481","0.168846","-0.343679","-0.180997","-0.92148","0.936819","0.00208323","-0.349809"
"9","333450032454620","6.94205","-0.326736","-3.38144","0","0","0","0.0700703","-0.98042","0.184027","-0.350388","-0.196916","-0.915671","0.93398","-0.000319508","-0.357325"
"9","333450049239288","7.40184","-0.345886","-2.90248","0","0","0","0.0909477","-0.966341","0.240654","-0.34885","-0.257258","-0.901178","0.932755","-0.00199204","-0.360505"
"9","333450066023956","7.78502","-0.288422","-2.82585","0","0","0","0.0789549","-0.973639","0.213992","-0.352138","-0.228063","-0.907737","0.932612","-0.00368447","-0.360862"
"9","333450082839142","7.68922","0.0372772","-2.71091","0","0","0","0.0949582","-0.961137","0.259229","-0.347237","-0.27603","-0.896233","0.932957","-0.00490897","-0.359953"
"9","333450099562774","6.71214","0.669495","-2.95996","0","0","0","0.077008","-0.974531","0.210615","-0.35111","-0.224218","-0.909092","0.933162","-0.00394183","-0.359434"
"9","333450116377960","5.77339","1.28256","-2.8067","0","0","0","0.0973645","-0.963237","0.250389","-0.348041","-0.268653","-0.898161","0.93241","0.000303517","-0.361403"
"9","333450133162628","5.62013","1.79984","-2.32774","0","0","0","0.0985621","-0.967935","0.231057","-0.35017","-0.251072","-0.90241","0.931486","0.00803418","-0.363688"
"9","333450149947296","5.96498","1.99142","-2.30858","0","0","0","0.0992817","-0.973704","0.205046","-0.351183","-0.227091","-0.90835","0.931028","0.0181739","-0.364494"
"9","333450166762481","6.42477","1.97226","-2.32774","0","0","0","0.104148","-0.976558","0.188379","-0.350421","-0.213294","-0.911982","0.930784","0.0289692","-0.364421"
"9","333450183516632","7.03784","2.10637","-2.05952","0","0","0","0.117097","-0.973916","0.19436","-0.345919","-0.223449","-0.911269","0.930929","0.0394741","-0.363061"
"9","333450200301300","7.70837","2.12553","-1.8871","0","0","0","0.117007","-0.979108","0.166305","-0.343423","-0.197014","-0.918284","0.931864","0.0503328","-0.3593"
"9","333450217085968","8.5705","1.83815","-1.84879","0","0","0","0.100632","-0.990233","0.0964926","-0.344051","-0.125637","-0.930507","0.933543","0.0604404","-0.353334"
"9","333450233901153","9.29852","1.51247","-1.61888","0","0","0","0.131019","-0.977998","0.162339","-0.326811","-0.197205","-0.924286","0.935964","0.0680447","-0.345458"
"9","333450250685821","8.5705","1.56995","-2.44269","0","0","0","0.108718","-0.990193","0.0877419","-0.326265","-0.118919","-0.937768","0.939006","0.073325","-0.335994"
"9","333450267439972","6.29066","1.89563","-6.35098","0","0","0","0.113989","-0.989698","0.0866328","-0.324092","-0.119474","-0.938451","0.939133","0.078896","-0.334371"
"9","333450284255157","7.30606","2.02974","-5.02905","0","0","0","0.109769","-0.99288","0.0462603","-0.348036","-0.0819893","-0.933889","0.931033","0.0864118","-0.354558"
"9","333450301009308","13.1685","1.64658","1.61887","0","0","0","0.122492","-0.990747","0.0584429","-0.350867","-0.0983128","-0.93125","0.928379","0.0935647","-0.359663"
"9","333450317793975","16.0231","-0.326736","3.09406","0","0","0","0.0914284","-0.995429","-0.0276085","-0.324402","-0.00356065","-0.945912","0.94149","0.0954396","-0.323245"
"9","333450334578643","16.4829","-4.5224","0.181992","0","0","0","0.101711","-0.993299","0.0548864","-0.275178","-0.0811114","-0.957965","0.955998","0.0823316","-0.281584"
"9","333450351332794","16.9235","-6.93634","-0.775909","0","0","0","0.0849244","-0.987418","0.133392","-0.24678","-0.150549","-0.957306","0.965343","0.0483801","-0.256461"
"9","333450368086944","14.2988","-4.84808","-2.04036","0","0","0","0.0616418","-0.974037","0.217833","-0.230844","-0.226244","-0.946322","0.971036","0.00804736","-0.238797"
"9","333450384932647","12.2297","1.34004","-3.34312","0","0","0","0.05265","-0.959545","0.276589","-0.226634","-0.281227","-0.932496","0.972556","-0.0135885","-0.232272"
"9","333450401717315","11.2335","5.74644","-5.3739","0","0","0","0.0571991","-0.9667","0.249439","-0.228566","-0.255892","-0.939296","0.971847","-0.00328638","-0.235591"
"9","333450418532501","10.2181","5.59319","-7.07899","0","0","0","0.0838464","-0.972016","0.219441","-0.238348","-0.233387","-0.94272","0.967554","0.0267403","-0.251247"
"9","333450435317169","8.99199","2.10637","-6.12108","0","0","0","0.113565","-0.969481","0.217276","-0.252096","-0.239652","-0.937558","0.961016","0.0516992","-0.271618"
"9","333450452071319","9.94991","-1.16969","-6.0636","0","0","0","0.109501","-0.979961","0.166391","-0.27318","-0.190622","-0.942887","0.95571","0.0577927","-0.288579"
"9","333450468825470","11.6358","-2.5874","-5.29727","0","0","0","0.108695","-0.975941","0.189011","-0.286275","-0.212814","-0.934215","0.951962","0.0474356","-0.302519"
"9","333450485671173","11.8466","-1.41875","-4.78","0","0","0","0.0809115","-0.986015","0.145696","-0.301048","-0.163524","-0.939484","0.95017","0.0321537","-0.310069"
"9","333450502486358","10.8312","0.075592","-4.78","0","0","0","0.102611","-0.96624","0.236331","-0.298414","-0.256543","-0.919312","0.948905","0.0238067","-0.314664"
"9","333450519209991","9.24104","1.20593","-5.18233","0","0","0","0.112642","-0.958325","0.262536","-0.30114","-0.284716","-0.910083","0.946904","0.0234533","-0.32066"
"9","333450536025177","8.47472","1.5891","-5.48886","0","0","0","0.0938527","-0.978424","0.184058","-0.317671","-0.204641","-0.925855","0.943545","0.0284239","-0.330023"
"9","333450552840362","8.12987","1.01434","-5.31644","0","0","0","0.103115","-0.977311","0.185016","-0.32746","-0.208993","-0.921462","0.939222","0.0344308","-0.341581"
"9","333450569625030","7.99576","0.61203","-4.53094","0","0","0","0.0955141","-0.984285","0.148526","-0.340752","-0.172524","-0.924188","0.935289","0.0376625","-0.351875"
"9","333450586409698","7.78502","0.74614","-3.72629","0","0","0","0.109675","-0.977835","0.178353","-0.343516","-0.205667","-0.91635","0.932721","0.0392334","-0.358459"
"9","333450603061193","7.7467","1.01434","-3.30481","0","0","0","0.0933946","-0.987435","0.127477","-0.351677","-0.152501","-0.923616","0.931451","0.0414301","-0.361501"
"9","333450619906896","7.47849","1.20593","-3.26649","0","0","0","0.0730435","-0.995287","0.0637796","-0.358234","-0.0858657","-0.929675","0.93077","0.0450587","-0.362818"
"9","333450636630529","7.03784","0.861084","-3.32397","0","0","0","0.0999765","-0.987548","0.121463","-0.354141","-0.149399","-0.923182","0.929833","0.0492814","-0.364667"
"9","333450653506749","6.86542","0.228867","-2.8067","0","0","0","0.076525","-0.995586","0.0543341","-0.362513","-0.0785461","-0.928663","0.928832","0.0513691","-0.366924"
"9","333450670291417","6.44394","-0.384201","-2.05952","0","0","0","0.0804037","-0.994483","0.0673648","-0.361444","-0.0920729","-0.927837","0.928921","0.0502529","-0.366853"
"9","333450687076085","6.02245","-1.3996","-1.79131","0","0","0","0.0745515","-0.995097","0.0649906","-0.359875","-0.0876272","-0.928876","0.930017","0.0458606","-0.364644"
"9","333450703830236","5.77339","-1.85939","-1.35066","0","0","0","0.0713215","-0.993901","0.0841086","-0.356602","-0.104158","-0.928432","0.93153","0.0362239","-0.361856"
"9","333450720645421","6.04161","-1.97435","-1.08244","0","0","0","0.0531849","-0.995982","0.0720522","-0.354353","-0.0862824","-0.931123","0.933598","0.0239897","-0.357518"
"9","333450736819738","7.45932","-1.78276","-0.68013","0","0","0","0.0381693","-0.996864","0.0693232","-0.348905","-0.0783026","-0.933881","0.93638","0.0114584","-0.3508"
"9","333450753604406","8.85788","-1.34212","-0.718445","0","0","0","0.0454161","-0.99119","0.124419","-0.33615","-0.132447","-0.932449","0.940713","0.000524807","-0.339204"
"9","333450770938390","8.97282","-1.3038","-1.13992","0","0","0","0.0393845","-0.989483","0.139185","-0.323215","-0.14442","-0.935241","0.945506","-0.00815264","-0.325503"
"9","333450787692540","8.91536","-1.15054","-2.15532","0","0","0","0.0501128","-0.978708","0.199045","-0.311953","-0.204663","-0.927792","0.948775","-0.0155986","-0.315567"
"9","333450804477208","8.4364","-0.57579","-3.26649","0","0","0","0.0543808","-0.9711","0.232396","-0.307726","-0.237712","-0.921302","0.94992","-0.0214134","-0.31176"
"9","333450821261876","8.83871","0.420441","-4.35852","0","0","0","0.0582292","-0.9676","0.245683","-0.31085","-0.251439","-0.916597","0.948674","-0.0229977","-0.315419"
"9","333450838077062","12.498","0.707825","-1.52309","0","0","0","0.0590869","-0.970784","0.232568","-0.313911","-0.239225","-0.918821","0.947612","-0.0187152","-0.318875"
"9","333450854922765","14.7203","1.45499","-0.201172","0","0","0","0.0696832","-0.963299","0.259227","-0.295375","-0.26813","-0.916984","0.952837","-0.0126708","-0.303219"
"9","333450871615880","15.2184","3.81146","-0.546021","0","0","0","0.0674818","-0.969201","0.236843","-0.272026","-0.246264","-0.930245","0.959921","-0.00165297","-0.280266"
"9","333450888461583","14.8161","5.36328","-0.450226","0","0","0","0.0772041","-0.975076","0.208006","-0.248928","-0.220873","-0.943","0.96544","0.0210249","-0.259776"
"9","333450905246251","12.5554","2.58533","-3.66882","0","0","0","0.0808416","-0.988131","0.130622","-0.235324","-0.146268","-0.960847","0.968549","0.046938","-0.244356"
"9","333450922061437","11.54","-2.5874","-5.58464","0","0","0","0.0824931","-0.990852","0.106803","-0.239946","-0.123763","-0.962865","0.967275","0.0538029","-0.24796"
"9","333450938846105","10.0648","-4.86725","-7.42384","0","0","0","0.0731627","-0.987962","0.1363","-0.254657","-0.150642","-0.955226","0.96426","0.0351773","-0.262613"
"9","333450955600255","9.18356","-3.0089","-5.39307","0","0","0","0.0649012","-0.979852","0.188885","-0.277033","-0.199536","-0.939914","0.958666","0.00867409","-0.284401"
"9","333450972384923","8.4364","1.39752","-3.91788","0","0","0","0.0370244","-0.989912","0.136762","-0.294787","-0.141585","-0.945015","0.954845","-0.00532713","-0.297056"
"9","333450989200109","10.7545","2.01057","-1.8871","0","0","0","0.0518466","-0.985812","0.159643","-0.296455","-0.167845","-0.940182","0.953638","0.00141819","-0.300951"
"9","333451005984777","13.0919","0.765289","-3.57303","0","0","0","0.0496475","-0.991048","0.123931","-0.29047","-0.133048","-0.947589","0.955595","0.0110472","-0.294475"
"9","333451022708410","14.7203","-0.901474","-6.25519","0","0","0","0.0451999","-0.993714","0.102421","-0.291023","-0.111177","-0.950234","0.955648","0.0131435","-0.294219"
"9","333451038943761","14.6437","-1.18886","-7.27058","0","0","0","0.0334282","-0.996164","0.0808744","-0.300775","-0.0871953","-0.949701","0.953109","0.00742181","-0.302536"
"9","333451056338781","12.2106","-0.901474","-7.42384","0","0","0","0.0420003","-0.991523","0.122952","-0.312087","-0.129923","-0.941128","0.949125","0.00115587","-0.314898"
"9","333451073123449","9.91159","-0.556625","-6.31267","0","0","0","0.0533741","-0.985307","0.162238","-0.325297","-0.170763","-0.930066","0.944105","-0.00313401","-0.329631"
"9","333451089908117","8.41724","0.209702","-4.83748","0","0","0","0.0600101","-0.981795","0.180213","-0.336375","-0.189869","-0.922389","0.939814","-0.00526655","-0.341646"
"9","333451106631749","7.49763","0.861084","-3.64966","0","0","0","0.0572734","-0.9848","0.16398","-0.344175","-0.173657","-0.922706","0.937157","-0.0035914","-0.348889"
"9","333451123446935","7.24858","0.592865","-2.71091","0","0","0","0.0508148","-0.989782","0.133229","-0.34836","-0.142589","-0.926452","0.935982","0.00066587","-0.352046"
"9","333451140231603","7.21027","0.0947571","-2.67259","0","0","0","0.071068","-0.98118","0.179543","-0.34492","-0.193068","-0.918561","0.935938","0.0033522","-0.35215"
"9","333451156436437","6.75047","-0.0393524","-2.61511","0","0","0","0.0762108","-0.97837","0.192311","-0.34376","-0.206828","-0.915997","0.93596","0.00370006","-0.352087"
"9","333451173282140","6.21404","0.209702","-2.42352","0","0","0","0.0623039","-0.985881","0.155422","-0.347003","-0.167407","-0.922802","0.935792","0.00356215","-0.352534"
"9","333451190585607","5.73508","0.707825","-2.19363","0","0","0","0.0875122","-0.971906","0.218494","-0.341992","-0.235317","-0.909762","0.935619","0.00489185","-0.352978"
"9","333451207339757","5.39023","1.20593","-2.11699","0","0","0","0.0775815","-0.980514","0.180478","-0.344799","-0.196241","-0.917934","0.935465","0.00898599","-0.353305"
"9","333451224154943","5.35191","1.79984","-2.04036","0","0","0","0.0713566","-0.98695","0.144351","-0.346831","-0.16024","-0.924138","0.935209","0.015878","-0.353739"
"9","333451240970128","5.3136","2.27879","-1.6572","0","0","0","0.0822643","-0.985995","0.145071","-0.344739","-0.164731","-0.924131","0.935087","0.0260113","-0.353463"
"9","333451257754796","6.21404","2.10637","-1.46562","0","0","0","0.100002","-0.982329","0.158206","-0.338856","-0.183121","-0.922845","0.935508","0.038677","-0.351181"
"9","333451273990148","7.61259","1.39752","-1.33151","0","0","0","0.109242","-0.981778","0.155494","-0.332138","-0.183492","-0.925211","0.936883","0.0494267","-0.346131"
"9","333451291293615","9.1261","0.956879","-1.61888","0","0","0","0.10922","-0.983731","0.142632","-0.324823","-0.170934","-0.9302","0.939447","0.055266","-0.338208"
"9","333451308078283","9.22188","1.03351","-1.79131","0","0","0","0.11001","-0.98383","0.141339","-0.315696","-0.169425","-0.933612","0.942461","0.058086","-0.32923"
"9","333451324893468","8.09155","1.5891","-3.55386","0","0","0","0.103042","-0.988263","0.112778","-0.312464","-0.139802","-0.939586","0.944324","0.0615774","-0.323202"
"9","333451341678136","6.48225","2.06805","-5.6996","0","0","0","0.109491","-0.98814","0.10766","-0.318046","-0.137445","-0.938059","0.941732","0.0684676","-0.329323"
"9","333451358432287","7.61259","2.0489","-4.64589","0","0","0","0.111683","-0.990607","0.0788969","-0.338103","-0.112535","-0.934356","0.934459","0.0776761","-0.347496"
"9","333451375155919","15.3142","1.26341","1.9254","0","0","0","0.107398","-0.993283","0.0430585","-0.345442","-0.0778914","-0.935202","0.932274","0.0855645","-0.351487"
"9","333451391421789","12.3638","-1.15054","-3.68797","0","0","0","0.0654794","-0.973183","0.220514","-0.239037","-0.229852","-0.943414","0.9688","0.00906319","-0.247677"
"9","333451408725255","11.8274","1.47415","-5.23979","0","0","0","0.0654794","-0.973183","0.220514","-0.239037","-0.229852","-0.943414","0.9688","0.00906319","-0.247677"
"9","333451425021642","11.8274","1.47415","-5.23979","0","0","0","0.0654794","-0.973183","0.220514","-0.239037","-0.229852","-0.943414","0.9688","0.00906319","-0.247677"
"9","333451442325109","11.8274","1.47415","-5.23979","0","0","0","0.0654794","-0.973183","0.220514","-0.239037","-0.229852","-0.943414","0.9688","0.00906319","-0.247677"
"9","333451458560460","11.4442","3.73483","-6.25519","0","0","0","0.0726878","-0.963354","0.258195","-0.241469","-0.268176","-0.932617","0.967682","0.00544363","-0.252114"
"9","333451475894445","11.4442","6.14877","-7.50047","0","0","0","0.0725841","-0.983906","0.163283","-0.260322","-0.17673","-0.94921","0.96279","0.0263914","-0.26896"
"9","333451492648595","10.6779","3.50493","-6.21687","0","0","0","0.0969133","-0.98615","0.134594","-0.276708","-0.156595","-0.948109","0.956055","0.0546412","-0.288052"
"9","333451509463781","10.1606","-0.59494","-7.17479","0","0","0","0.0981314","-0.99114","0.0895103","-0.29474","-0.114855","-0.94865","0.950525","0.06671","-0.3034"
"9","333451526217931","10.8503","-2.83647","-7.13647","0","0","0","0.121481","-0.97611","0.180145","-0.303524","-0.209326","-0.929546","0.945048","0.0582435","-0.321702"
"9","333451543002599","12.2681","-0.939789","-4.45432","0","0","0","0.0943965","-0.984811","0.145727","-0.325391","-0.168862","-0.93038","0.940856","0.0404063","-0.336388"
"9","333451559298986","11.4442","1.60826","-4.91411","0","0","0","0.103106","-0.976706","0.18819","-0.323969","-0.211857","-0.922042","0.940433","0.0341008","-0.338266"
"9","333451576632970","10.2756","2.96849","-6.23602","0","0","0","0.136379","-0.956074","0.259468","-0.317477","-0.290282","-0.902743","0.938408","0.0407402","-0.343119"
"9","333451593417638","9.50926","2.81523","-6.19771","0","0","0","0.139995","-0.964171","0.225337","-0.329217","-0.259956","-0.907766","0.933819","0.0528978","-0.353813"
"9","333451610202306","8.78125","1.64658","-6.00613","0","0","0","0.122023","-0.982564","0.14028","-0.349903","-0.174848","-0.920324","0.928805","0.0632162","-0.365138"
"9","333451627017492","8.12987","0.458755","-5.50801","0","0","0","0.118697","-0.986293","0.114622","-0.363175","-0.150563","-0.919475","0.924129","0.067511","-0.376068"
"9","333451643710607","7.89996","-0.135147","-4.70337","0","0","0","0.118127","-0.986585","0.112675","-0.372708","-0.149225","-0.915872","0.920399","0.0661946","-0.385335"
"9","333451660586828","7.76585","0.152222","-3.72629","0","0","0","0.099572","-0.992222","0.0747031","-0.383225","-0.107526","-0.917375","0.918272","0.0627168","-0.390951"
"9","333451677371496","7.1911","0.861084","-3.47723","0","0","0","0.0991262","-0.992116","0.0766858","-0.385085","-0.109307","-0.916385","0.917542","0.0613072","-0.392884"
"9","333451694095128","6.78879","0.995193","-2.99828","0","0","0","0.0840333","-0.99584","0.0352414","-0.390258","-0.0654318","-0.918378","0.916863","0.063421","-0.394133"
"9","333451710910314","6.34814","0.477921","-2.74922","0","0","0","0.0906794","-0.994883","0.0445567","-0.389536","-0.0766099","-0.917819","0.916536","0.0658708","-0.39449"
"9","333451727694982","6.29066","-0.269257","-2.23195","0","0","0","0.0896743","-0.995042","0.0430204","-0.389668","-0.074803","-0.917913","0.916579","0.0655495","-0.394443"
"9","333451744479650","6.27151","-0.997269","-1.71468","0","0","0","0.107222","-0.989552","0.0963844","-0.382185","-0.130517","-0.914823","0.917844","0.061252","-0.392186"
"9","333451761264318","6.11824","-1.59117","-1.35066","0","0","0","0.085458","-0.994099","0.06682","-0.381801","-0.0946199","-0.919388","0.920285","0.0530571","-0.387634"
"9","333451778048986","6.30983","-1.82108","-1.12076","0","0","0","0.0817721","-0.992689","0.0887758","-0.375343","-0.113189","-0.919949","0.923272","0.0419048","-0.381855"
"9","333451794833654","6.44394","-1.49539","-0.852554","0","0","0","0.0748323","-0.991555","0.105922","-0.367983","-0.126181","-0.921231","0.926816","0.0299604","-0.374318"
"9","333451811618322","6.75047","-0.978119","-0.737595","0","0","0","0.070734","-0.989604","0.125225","-0.358961","-0.142382","-0.922428","0.930668","0.0202962","-0.365301"
"9","333451828433507","7.84248","-0.518311","-0.68013","0","0","0","0.066772","-0.988435","0.136151","-0.348838","-0.150971","-0.924943","0.934801","0.0142655","-0.354885"
"9","333451845218175","8.24481","-0.748215","-1.23572","0","0","0","0.0755323","-0.981169","0.177769","-0.334642","-0.192882","-0.922394","0.939313","0.0101814","-0.34291"
"9","333451861972326","8.30229","-1.15054","-2.23195","0","0","0","0.0723045","-0.979137","0.189902","-0.326321","-0.203145","-0.923172","0.94249","0.0047807","-0.334201"
"9","333451878726476","8.93451","-1.16969","-3.55386","0","0","0","0.0875214","-0.962482","0.256844","-0.319672","-0.271333","-0.907848","0.943478","-0.00264956","-0.331426"
"9","333451895541662","10.5438","-0.57579","-3.11322","0","0","0","0.0797858","-0.964291","0.25254","-0.323667","-0.264682","-0.908396","0.942801","-0.00926178","-0.333228"
"9","333451912326330","12.5938","-0.269257","-0.929184","0","0","0","0.0854937","-0.955871","0.281073","-0.316976","-0.293543","-0.901864","0.944572","-0.0119899","-0.328085"
"9","333451929141515","14.8353","0.075592","0.50769","0","0","0","0.0853968","-0.949203","0.302855","-0.296243","-0.314408","-0.90188","0.951287","-0.0127013","-0.308045"
"9","333451945926183","15.4483","2.14468","0.0670471","0","0","0","0.0836356","-0.944053","0.319013","-0.268092","-0.329648","-0.90524","0.959756","-0.00981456","-0.280664"
"9","333451962680333","13.475","4.73106","0.66095","0","0","0","0.0851349","-0.94889","0.303907","-0.241356","-0.31557","-0.917694","0.966695","0.00477796","-0.255887"
"9","333451979465001","11.0228","2.24048","-3.1707","0","0","0","0.078133","-0.975897","0.203764","-0.22615","-0.216411","-0.949749","0.970954","0.0281254","-0.237608"
"9","333451996280187","9.89243","-1.45708","-3.80293","0","0","0","0.0759201","-0.984228","0.159785","-0.230408","-0.173227","-0.957551","0.970128","0.0358818","-0.239925"
"9","333452013095372","8.85788","-3.27711","-6.9832","0","0","0","0.0745825","-0.978717","0.191182","-0.239525","-0.203685","-0.949284","0.968021","0.0250073","-0.249618"
"9","333452029819005","9.24104","-2.9131","-7.51964","0","0","0","0.0709741","-0.97094","0.228555","-0.264782","-0.239251","-0.934157","0.961693","0.00578387","-0.274068"
"9","333452046634191","9.77748","-0.460846","-6.44678","0","0","0","0.0668331","-0.967965","0.242025","-0.290243","-0.250939","-0.923466","0.954616","-0.00852815","-0.297717"
"9","333452063388341","11.9041","1.24425","-5.33559","0","0","0","0.06831","-0.969213","0.23656","-0.306103","-0.246038","-0.919655","0.949544","-0.00959006","-0.313486"
"9","333452080173009","14.1264","1.89563","-5.35475","0","0","0","0.0511946","-0.986132","0.15787","-0.315746","-0.165951","-0.934219","0.947462","-0.0020197","-0.319863"
"9","333452096988195","14.9694","1.74237","-6.58087","0","0","0","0.0606387","-0.986235","0.153829","-0.317498","-0.165166","-0.933764","0.946318","0.00778187","-0.323143"
"9","333452113742345","12.4788","0.075592","-5.62297","0","0","0","0.0628665","-0.988627","0.136621","-0.323748","-0.14969","-0.934227","0.944052","0.0145008","-0.329477"
"9","333452130557531","10.0074","-0.939789","-4.97159","0","0","0","0.0449454","-0.995212","0.0867872","-0.332807","-0.096829","-0.938011","0.941923","0.0132759","-0.335565"
"9","333452147311681","8.12987","-1.01643","-4.45432","0","0","0","0.052845","-0.991051","0.122576","-0.338098","-0.133254","-0.931629","0.939626","0.00778942","-0.342114"
"9","333452164096349","6.98036","-0.537476","-3.47723","0","0","0","0.0556148","-0.988289","0.142098","-0.344219","-0.152571","-0.92641","0.937241","0.00260914","-0.348673"
"9","333452180911535","6.78879","-0.326736","-2.73006","0","0","0","0.0617474","-0.98445","0.164457","-0.346943","-0.175667","-0.921288","0.935851","-0.00017028","-0.352395"
"9","333452197665685","7.5168","-0.671585","-3.03659","0","0","0","0.0555683","-0.986648","0.153093","-0.349099","-0.162852","-0.922827","0.935437","-0.00216473","-0.353487"
"9","333452214480871","8.26398","-0.920639","-3.09407","0","0","0","0.0571719","-0.984276","0.167128","-0.349638","-0.17654","-0.920102","0.935139","-0.00583032","-0.354234"
"9","333452231235021","8.07239","-0.59494","-3.01744","0","0","0","0.0595819","-0.980771","0.185846","-0.349192","-0.194892","-0.91656","0.935155","-0.0102854","-0.354089"
"9","333452248019689","7.21027","0.362961","-2.92165","0","0","0","0.0586886","-0.979965","0.190327","-0.349077","-0.198765","-0.915772","0.935255","-0.0126932","-0.353748"
"9","333452264834874","6.71214","1.2251","-2.92165","0","0","0","0.0712256","-0.974075","0.214721","-0.347669","-0.226012","-0.90997","0.934908","-0.00983842","-0.354753"
"9","333452281619542","6.55888","1.819","-2.82585","0","0","0","0.0809506","-0.972477","0.218486","-0.347318","-0.232989","-0.908343","0.934247","-0.00235322","-0.356619"
"9","333452298404210","6.48225","2.29796","-2.63428","0","0","0","0.0999726","-0.966127","0.237916","-0.344195","-0.257931","-0.902774","0.933561","0.00836322","-0.358322"
"9","333452315158361","6.53972","2.64281","-2.36606","0","0","0","0.090261","-0.980223","0.176113","-0.348183","-0.196735","-0.91655","0.933071","0.021409","-0.359054"
"9","333452331943029","6.67383","2.75775","-1.67636","0","0","0","0.106416","-0.978058","0.179104","-0.34337","-0.205193","-0.916511","0.933152","0.0360322","-0.357672"
"9","333452348758214","7.03784","2.62364","-1.50394","0","0","0","0.111345","-0.981887","0.153297","-0.338667","-0.182514","-0.923035","0.934295","0.0508584","-0.352854"
"9","333452365512365","7.95744","2.01057","-1.25487","0","0","0","0.120067","-0.982334","0.143538","-0.33085","-0.175912","-0.927143","0.936014","0.06383","-0.346126"
"9","333452382297033","9.0303","1.51247","-1.54225","0","0","0","0.10705","-0.990601","0.0851457","-0.327652","-0.116002","-0.93765","0.938714","0.0724772","-0.33699"
"9","333452399081701","8.95367","1.62741","-2.07867","0","0","0","0.120115","-0.986444","0.11181","-0.314216","-0.144611","-0.938273","0.941722","0.0775677","-0.327327"
"9","333452415866369","7.86165","1.64658","-3.78377","0","0","0","0.116121","-0.989615","0.0847255","-0.312887","-0.117406","-0.942506","0.942665","0.0829356","-0.323271"
"9","333452432132238","7.26775","1.26341","-4.85663","0","0","0","0.116253","-0.99104","0.0657664","-0.321632","-0.100211","-0.941547","0.939701","0.0883049","-0.3304"
"9","333452448886388","11.291","1.03351","-0.986664","0","0","0","0.107085","-0.993824","0.0290998","-0.334122","-0.0635369","-0.940386","0.936427","0.0909783","-0.338862"
"9","333452465701574","14.567","0.707825","1.25487","0","0","0","0.105473","-0.994019","0.0283046","-0.315284","-0.0604218","-0.947072","0.943118","0.0909663","-0.319771"
"9","333452483005040","15.525","-1.7636","-1.63805","0","0","0","0.115733","-0.98947","0.0869244","-0.279356","-0.116405","-0.953106","0.953187","0.0860226","-0.289886"
"9","333452499789708","17.824","-3.64111","-5.4697","0","0","0","0.0997548","-0.989384","0.105676","-0.26651","-0.128893","-0.955175","0.958656","0.0671195","-0.276539"
"9","333452516574376","18.6478","-3.35374","-4.01367","0","0","0","0.079297","-0.988586","0.128097","-0.268764","-0.144945","-0.952238","0.959936","0.0410817","-0.27719"
"9","333452533359044","14.1073","0.880249","-0.546021","0","0","0","0.0746048","-0.979045","0.189486","-0.259425","-0.202528","-0.944289","0.962877","0.0212911","-0.269098"
"9","333452550143712","8.51303","2.35542","-3.32397","0","0","0","0.0761027","-0.978082","0.193813","-0.246299","-0.206793","-0.946876","0.966201","0.0243239","-0.256638"
"9","333452566928380","5.81171","1.70406","-6.12108","0","0","0","0.0903352","-0.975154","0.202275","-0.249809","-0.218799","-0.943251","0.964072","0.0346788","-0.263367"
"9","333452583713048","7.1911","0.861084","-7.07899","0","0","0","0.109329","-0.968174","0.225134","-0.267582","-0.246797","-0.931392","0.957312","0.0415869","-0.286048"
"9","333452600528234","10.199","0.899399","-4.79916","0","0","0","0.0984801","-0.981603","0.163575","-0.29449","-0.185759","-0.937427","0.950567","0.0441464","-0.307366"
"9","333452617282384","12.4022","1.45499","-6.14024","0","0","0","0.0970821","-0.98446","0.146335","-0.303482","-0.169309","-0.937674","0.947878","0.0466212","-0.315203"
"9","333452634067052","12.5746","1.72321","-7.40468","0","0","0","0.0993506","-0.985972","0.134118","-0.313873","-0.158957","-0.936064","0.944253","0.0509025","-0.325263"
"9","333452650851720","10.6396","1.74237","-6.48509","0","0","0","0.11242","-0.982371","0.149364","-0.324496","-0.178372","-0.928917","0.939183","0.0559608","-0.338828"
"9","333452667636388","8.8004","1.43584","-4.93326","0","0","0","0.0958527","-0.991949","0.0827634","-0.342036","-0.110906","-0.933119","0.934785","0.0611339","-0.349913"
"9","333452684451574","7.82333","0.362961","-3.64966","0","0","0","0.114106","-0.986147","0.120393","-0.343772","-0.152891","-0.926523","0.932095","0.0643339","-0.356456"
"9","333452701175206","8.5705","-1.0739","-4.26273","0","0","0","0.0989688","-0.990248","0.0980487","-0.353826","-0.127113","-0.926633","0.93006","0.0570156","-0.362956"
"9","333452717959874","8.5705","-1.0739","-4.26273","0","0","0","0.0989688","-0.990248","0.0980487","-0.353826","-0.127113","-0.926633","0.93006","0.0570156","-0.362956"
"9","333452734744542","8.55135","-0.556625","-4.10945","0","0","0","0.0831965","-0.993454","0.0782787","-0.361327","-0.103278","-0.926702","0.92872","0.0488141","-0.367555"
"9","333452750979894","8.35976","-0.154312","-3.70714","0","0","0","0.0710787","-0.995416","0.0639873","-0.367134","-0.085754","-0.926207","0.927448","0.0423417","-0.371546"
"9","333452768313878","8.01491","0.49707","-2.86417","0","0","0","0.0696816","-0.995334","0.0667374","-0.368488","-0.0878503","-0.925472","0.927017","0.0398964","-0.372891"
"9","333452785098546","7.45932","0.592865","-2.02121","0","0","0","0.0741896","-0.994328","0.0762025","-0.365673","-0.0982152","-0.925547","0.927782","0.0408007","-0.370886"
"9","333452801883214","7.17195","0.0947571","-1.61888","0","0","0","0.0861478","-0.990704","0.10528","-0.358508","-0.12942","-0.924512","0.929543","0.041901","-0.366325"
"9","333452818667882","6.53972","-0.499161","-0.833389","0","0","0","0.0751985","-0.993689","0.0832295","-0.354572","-0.104657","-0.929153","0.932","0.0403601","-0.360204"
"9","333452835483068","5.9075","-0.690735","-0.56517","0","0","0","0.0826424","-0.989567","0.118017","-0.344272","-0.13948","-0.928451","0.935226","0.0360995","-0.352207"
"9","333452852328771","5.3136","-0.78653","-0.56517","0","0","0","0.0676864","-0.993139","0.0953614","-0.338722","-0.112778","-0.934103","0.938449","0.0309251","-0.344031"
"9","333452869052404","5.17949","-0.63327","-1.04413","0","0","0","0.0787661","-0.986212","0.145542","-0.329258","-0.163539","-0.92997","0.940949","0.0253291","-0.337599"
"9","333452885898107","5.71591","0.0564423","-1.06329","0","0","0","0.0797816","-0.983376","0.163118","-0.324256","-0.180342","-0.92862","0.942599","0.0211948","-0.333253"
"9","333452902621740","6.52057","0.74614","-0.929184","0","0","0","0.0690475","-0.988501","0.134528","-0.321111","-0.149695","-0.935136","0.944521","0.0213704","-0.327755"
"9","333452919375890","7.07616","0.55455","-1.77214","0","0","0","0.0757575","-0.986261","0.146801","-0.312707","-0.163297","-0.935707","0.946824","0.024981","-0.320782"
"9","333452936252111","7.95744","-0.384201","-3.57303","0","0","0","0.0725838","-0.988325","0.133961","-0.310982","-0.150046","-0.938497","0.94764","0.0264603","-0.318242"
"9","333452953036779","9.83495","-0.901474","-5.12485","0","0","0","0.0705573","-0.987872","0.138312","-0.317054","-0.153677","-0.935874","0.945779","0.0221804","-0.324052"
"9","333452969729894","13.226","-1.16969","-2.00204","0","0","0","0.0760205","-0.981981","0.173017","-0.321194","-0.188387","-0.928087","0.943957","0.0149815","-0.329728"
"9","333452986484044","14.7778","-0.307571","0.392746","0","0","0","0.0704935","-0.978969","0.191446","-0.305419","-0.203888","-0.930134","0.949605","0.00709725","-0.313369"
"9","333453003268712","14.6245","2.47038","0.411896","0","0","0","0.0571672","-0.984148","0.167886","-0.280606","-0.177221","-0.94332","0.958119","0.00681712","-0.286289"
"9","333453019534581","14.4521","4.53947","0.737595","0","0","0","0.075205","-0.977679","0.196183","-0.250233","-0.208948","-0.94537","0.96526","0.0220051","-0.260362"
"9","333453036868566","13.3409","3.67735","-2.8067","0","0","0","0.0672611","-0.994109","0.0849857","-0.233521","-0.098498","-0.96735","0.970023","0.0452191","-0.23877"
"9","333453053622716","12.3447","-0.384201","-4.87579","0","0","0","0.0850572","-0.99117","0.101724","-0.229819","-0.118857","-0.965949","0.96951","0.0587829","-0.237899"
"9","333453070437902","11.0994","-3.33458","-5.79539","0","0","0","0.0655512","-0.996486","0.0521437","-0.24358","-0.0666548","-0.967588","0.967663","0.0507254","-0.247093"
"9","333453087192052","10.4672","-3.73691","-8.13271","0","0","0","0.0648156","-0.989888","0.126179","-0.258259","-0.138777","-0.956056","0.963899","0.0293805","-0.264642"
"9","333453103976720","8.99199","0.362961","-6.00613","0","0","0","0.0580296","-0.985443","0.159794","-0.283092","-0.169737","-0.943954","0.957336","0.00954076","-0.288821"
"9","333453120791906","9.33684","2.4129","-3.18987","0","0","0","0.0464629","-0.992772","0.110652","-0.299789","-0.119524","-0.946488","0.952873","0.0108041","-0.303176"
"9","333453137576574","10.6779","2.71944","-2.99828","0","0","0","0.0488724","-0.995824","0.0771067","-0.300967","-0.0882934","-0.949538","0.952381","0.0231996","-0.304026"
"9","333453154361242","12.6129","0.861084","-5.3739","0","0","0","0.0387845","-0.999224","0.00686708","-0.302707","-0.0182982","-0.952908","0.952294","0.0348793","-0.303182"
"9","333453170596593","14.2605","-1.59117","-7.00237","0","0","0","0.0391227","-0.999211","0.00677598","-0.309834","-0.0185775","-0.950609","0.949986","0.0350909","-0.310316"
"9","333453187381261","13.5708","-2.18509","-6.60004","0","0","0","0.0256805","-0.99967","0.00117822","-0.320972","-0.00936164","-0.947043","0.946741","0.0239424","-0.321106"
"9","333453204684728","11.2718","-1.41875","-5.10568","0","0","0","0.0263435","-0.998881","0.0392772","-0.328939","-0.0457645","-0.943242","0.943984","0.0119284","-0.329776"
"9","333453221011632","9.24104","-0.614105","-3.82208","0","0","0","0.0390964","-0.9946","0.0961352","-0.332513","-0.103675","-0.937383","0.942288","0.00468217","-0.334771"
"9","333453238345617","7.99576","-0.0585175","-2.82585","0","0","0","0.0327024","-0.995688","0.0868088","-0.335007","-0.0927508","-0.937639","0.941648","0.00158151","-0.336596"
"9","333453255130285","7.26775","-0.345886","-2.95996","0","0","0","0.0211094","-0.998185","0.056394","-0.336501","-0.0602092","-0.939756","0.941446","0.00086105","-0.337162"
"9","333453271914953","7.72754","-0.690735","-2.86417","0","0","0","0.0159783","-0.998716","0.0480726","-0.338384","-0.050643","-0.939644","0.940872","-0.00125309","-0.338759"
"9","333453288699621","7.91913","-0.537476","-2.86417","0","0","0","0.0293984","-0.995029","0.0951439","-0.338033","-0.0994737","-0.935862","0.940675","-0.00464899","-0.339278"
"9","333453305453771","7.44017","0.133072","-2.97913","0","0","0","0.0342192","-0.992794","0.114839","-0.338143","-0.119631","-0.93346","0.940472","-0.00688981","-0.339801"
"9","333453322238439","7.1911","1.11014","-2.55763","0","0","0","0.0458369","-0.98886","0.141614","-0.337901","-0.148755","-0.929352","0.940065","-0.00525294","-0.340955"
"9","333453339053624","6.73131","1.74237","-2.59595","0","0","0","0.0483738","-0.990407","0.129434","-0.33754","-0.138171","-0.931115","0.940068","0.00135258","-0.340986"
"9","333453355838292","6.21404","2.14468","-2.481","0","0","0","0.0401207","-0.996136","0.0781198","-0.339624","-0.0871232","-0.936517","0.939705","0.0110423","-0.341808"
"9","333453372592443","6.04161","2.37459","-2.00204","0","0","0","0.0489086","-0.996507","0.0676941","-0.339758","-0.0803322","-0.937076","0.93924","0.0228315","-0.3425"
"9","333453389377111","6.19487","2.02974","-1.25487","0","0","0","0.0716241","-0.993014","0.093773","-0.335347","-0.112516","-0.935352","0.939368","0.0355472","-0.341063"
"9","333453406161779","6.5014","1.74237","-0.871704","0","0","0","0.0696404","-0.995845","0.0586817","-0.331687","-0.0785927","-0.94011","0.940816","0.0460057","-0.335782"
"9","333453423007482","7.38269","1.51247","-1.10161","0","0","0","0.0725023","-0.996433","0.0431812","-0.324629","-0.0645139","-0.943639","0.943059","0.0543981","-0.328148"
"9","333453439792150","8.89619","1.20593","-1.21655","0","0","0","0.0698906","-0.99741","0.0169728","-0.318173","-0.0384144","-0.947254","0.945453","0.0608038","-0.320034"
"9","333453456515783","9.77748","1.01434","-1.10161","0","0","0","0.0627446","-0.997896","-0.0163394","-0.310375","-0.0039503","-0.950606","0.948541","0.0647168","-0.309969"
"9","333453473330968","9.01114","1.05267","-2.65343","0","0","0","0.0723747","-0.997358","0.00624864","-0.298719","-0.0276536","-0.953941","0.951593","0.0671746","-0.299931"
"9","333453490085119","6.9229","1.18677","-5.04822","0","0","0","0.0651749","-0.997548","-0.0255102","-0.301935","0.0046522","-0.953317","0.951098","0.0698348","-0.300891"
"9","333453506869787","6.94205","1.5891","-4.1861","0","0","0","0.0583046","-0.996589","-0.058403","-0.319577","0.0367914","-0.946846","0.945765","0.0738697","-0.316342"
"9","333453523684972","11.655","2.22133","1.38898","0","0","0","0.0680838","-0.996484","-0.0488254","-0.323861","0.0242142","-0.945795","0.943652","0.0802059","-0.321074"
"9","333453540469640","15.0268","-0.57579","1.17822","0","0","0","0.0578197","-0.992915","-0.103809","-0.297842","0.0820908","-0.951079","0.952862","0.0859097","-0.290986"
"9","333453557223790","16.4829","-4.65651","-0.737595","0","0","0","0.0715767","-0.997354","-0.0127168","-0.261853","-0.00648696","-0.965086","0.96245","0.0724076","-0.261624"
"9","333453574008458","17.1917","-5.13547","-1.81047","0","0","0","0.0484909","-0.998308","0.0321057","-0.240703","-0.0428758","-0.969651","0.969387","0.0392913","-0.242375"
"9","333453590793126","14.4521","-0.211777","-4.37767","0","0","0","0.0313408","-0.996222","0.0809867","-0.230669","-0.0860483","-0.96922","0.972527","0.0116949","-0.232495"
"9","333453607608312","12.9577","3.83061","-3.70714","0","0","0","0.0394619","-0.992892","0.112284","-0.233397","-0.118422","-0.965144","0.97158","0.0118796","-0.236411"
"9","333453624362462","11.9041","4.59695","-3.15155","0","0","0","0.0481825","-0.996724","0.0649647","-0.235634","-0.0745471","-0.968979","0.970647","0.03138","-0.238454"
"9","333453641147130","9.35599","1.72321","-5.62297","0","0","0","0.0572122","-0.998195","0.018284","-0.240789","-0.0315697","-0.970064","0.96889","0.0510969","-0.24216"
"9","333453657931798","8.58966","-0.958954","-7.05983","0","0","0","0.0627521","-0.997835","0.019671","-0.257048","-0.0352039","-0.965757","0.964359","0.0555469","-0.2587"
"9","333453674746984","11.3868","-1.55286","-5.14401","0","0","0","0.0766039","-0.992565","0.0945859","-0.274738","-0.112205","-0.95495","0.958463","0.0471665","-0.281291"
"9","333453691531652","12.1723","0.458755","-4.6842","0","0","0","0.0609607","-0.995621","0.0708745","-0.286454","-0.0854704","-0.954274","0.956153","0.0378709","-0.29041"
"9","333453708224767","12.0381","2.5087","-5.54633","0","0","0","0.0613438","-0.995857","0.0671236","-0.291728","-0.0822025","-0.952963","0.954532","0.0388766","-0.295562"
"9","333453725070470","10.7354","3.56241","-5.71875","0","0","0","0.0619396","-0.997579","0.031623","-0.301841","-0.0489227","-0.952102","0.951344","0.0494277","-0.30414"
"9","333453741855138","9.47095","3.00681","-5.85286","0","0","0","0.0831978","-0.995349","0.0485631","-0.309921","-0.0721591","-0.94802","0.947115","0.0638224","-0.314483"
"9","333453758639806","8.78125","1.53162","-5.41222","0","0","0","0.0786892","-0.996899","0.000100728","-0.325527","-0.0257906","-0.945181","0.942253","0.0743428","-0.326547"
"9","333453775454992","8.18733","0.209702","-4.0903","0","0","0","0.0765606","-0.996932","-0.0162552","-0.336625","-0.0104988","-0.94158","0.938521","0.0775598","-0.336396"
"9","333453792209142","7.67006","-0.537476","-3.66882","0","0","0","0.0563179","-0.996378","-0.0637181","-0.345122","0.0404576","-0.937686","0.936867","0.074799","-0.341593"
"9","333453808993810","7.34438","-0.690735","-3.41975","0","0","0","0.0455986","-0.996154","-0.074815","-0.349423","0.0542568","-0.935393","0.935855","0.0687946","-0.345605"
"9","333453825778478","6.90373","0.209702","-3.38144","0","0","0","0.0525616","-0.997796","-0.0404907","-0.350991","0.0195008","-0.936176","0.934902","0.0634187","-0.349193"
"9","333453842593664","6.84625","0.458755","-3.03659","0","0","0","0.0516361","-0.997902","-0.0390504","-0.354564","0.0182364","-0.934854","0.933605","0.062118","-0.352878"
"9","333453859378331","6.84625","0.171387","-2.44269","0","0","0","0.0378335","-0.996526","-0.074199","-0.358147","0.0557971","-0.931996","0.932898","0.0618348","-0.354792"
"9","333453876162999","6.80794","-0.384201","-1.86794","0","0","0","0.0376012","-0.996861","-0.0696733","-0.356826","0.0517322","-0.932738","0.933414","0.0599333","-0.353761"
"9","333453892917150","6.73131","-1.0739","-1.48477","0","0","0","0.0360848","-0.99752","-0.0604234","-0.352783","0.043855","-0.934677","0.935009","0.0550439","-0.350325"
"9","333453909701818","6.76962","-1.59117","-1.35066","0","0","0","0.0419281","-0.998904","-0.0208072","-0.345984","0.00502095","-0.938227","0.937303","0.0465371","-0.345394"
"9","333453926517003","6.75047","-1.47623","-1.12076","0","0","0","0.03341","-0.999365","-0.0124189","-0.339797","0.000327563","-0.940499","0.939905","0.035642","-0.33957"
"9","333453943332189","6.71214","-0.920639","-1.08244","0","0","0","0.00754017","-0.998363","-0.0566887","-0.33365","0.0509298","-0.94132","0.942667","0.0260119","-0.33272"
"9","333453960055822","7.22942","-0.154312","-1.42729","0","0","0","0.0196999","-0.999799","-0.00385334","-0.326043","-0.00278082","-0.945351","0.94515","0.0198797","-0.326032"
"9","333453976871007","7.45932","-0.365051","-1.42729","0","0","0","0.00529177","-0.999205","-0.0395199","-0.320607","0.035739","-0.946538","0.947197","0.0176792","-0.320163"
"9","333453993625158","7.63174","-1.0739","-2.46185","0","0","0","0.0265655","-0.999025","0.0352748","-0.314386","-0.0418463","-0.948373","0.948924","0.0141041","-0.315191"
"9","333454010440343","8.32144","-1.3996","-4.07114","0","0","0","0.0152623","-0.999562","0.0253693","-0.315464","-0.0288901","-0.948498","0.948815","0.0064732","-0.315767"
"9","333454027163976","10.3905","0.0947571","-3.34312","0","0","0","0.0372437","-0.992761","0.114182","-0.320934","-0.120091","-0.939457","0.946369","-0.00165617","-0.323084"
"9","333454043429845","11.2143","0.420441","-2.05952","0","0","0","0.0386409","-0.991733","0.122358","-0.324106","-0.128269","-0.937285","0.945231","-0.00343948","-0.326383"
"9","333454060794347","13.5325","0.516235","0.52684","0","0","0","0.0340724","-0.993811","0.105731","-0.312356","-0.111082","-0.943448","0.949354","-0.000880085","-0.314208"
"9","333454077548497","14.4521","1.64658","0.469376","0","0","0","0.0376433","-0.99263","0.115189","-0.285312","-0.121148","-0.950747","0.957695","0.00292454","-0.287769"
"9","333454094333165","14.1073","4.73106","0.50769","0","0","0","0.0449169","-0.99266","0.112285","-0.259251","-0.12013","-0.95831","0.964765","0.0139344","-0.262744"
"9","333454111148351","11.8466","3.84978","-0.795074","0","0","0","0.0387258","-0.999248","-0.0017735","-0.241161","-0.00762379","-0.970455","0.969712","0.0380093","-0.241275"
"9","333454127902501","9.8158","0.0181122","-2.97913","0","0","0","0.0419885","-0.997524","-0.0564205","-0.234643","0.0450456","-0.971038","0.971174","0.0540111","-0.23217"
"9","333454144717687","8.09155","-2.77899","-4.85663","0","0","0","0.0512308","-0.998685","0.00181967","-0.235609","-0.0138569","-0.971749","0.970497","0.0493548","-0.236009"
"9","333454161471837","7.24858","-4.12007","-8.80324","0","0","0","0.0277054","-0.999506","-0.0148497","-0.25492","0.0072996","-0.966935","0.966565","0.0305748","-0.254592"
"9","333454178287023","9.16441","-3.507","-9.09061","0","0","0","0.00602473","-0.999979","-0.00229594","-0.291035","0.000443162","-0.956712","0.956694","0.00643213","-0.291026"
"9","333454195071691","15.8315","1.55078","-6.44678","0","0","0","-0.0169078","-0.999672","-0.0192098","-0.320534","0.0236178","-0.946943","0.947086","-0.00985338","-0.320828"
"9","333454211795324","15.8315","1.55078","-6.44678","0","0","0","-0.0169078","-0.999672","-0.0192098","-0.320534","0.0236178","-0.946943","0.947086","-0.00985338","-0.320828"
"9","333454228579992","15.8315","1.55078","-6.44678","0","0","0","-0.0169078","-0.999672","-0.0192098","-0.320534","0.0236178","-0.946943","0.947086","-0.00985338","-0.320828"
"9","333454244815343","14.2797","0.458755","-6.27435","0","0","0","-0.000821659","-0.999998","-0.0016192","-0.321415","0.00179738","-0.946937","0.946938","-0.000257624","-0.321416"
"9","333454261600011","13.0727","-0.0202026","-6.04445","0","0","0","-0.00339867","-0.999728","-0.0230684","-0.327125","0.0229108","-0.944703","0.944975","0.00433552","-0.327114"
"9","333454278933996","10.4289","-0.230942","-5.20148","0","0","0","-0.0118283","-0.998904","-0.0452993","-0.333904","0.0466478","-0.941452","0.942533","0.00398977","-0.334089"
"9","333454295688146","8.70461","-0.173462","-3.97536","0","0","0","-0.00886697","-0.999426","-0.0326979","-0.340362","0.0337632","-0.939688","0.940253","0.00279693","-0.340466"
"9","333454312472814","7.84248","-0.384201","-3.1707","0","0","0","-0.00904846","-0.999525","-0.0294606","-0.343819","0.0307753","-0.938532","0.938992","0.00163682","-0.343934"
"9","333454329257482","7.47849","-0.920639","-3.26649","0","0","0","0.00350785","-0.999926","0.0116133","-0.345565","-0.01211","-0.938316","0.938388","-0.000721668","-0.345583"
"9","333454346103185","7.99576","-1.3996","-3.47723","0","0","0","0.00166605","-0.999776","0.021079","-0.348081","-0.0203406","-0.937244","0.937463","-0.00577571","-0.348037"
"9","333454362918371","8.16818","-1.0739","-2.95996","0","0","0","0.0119758","-0.997636","0.0676682","-0.349889","-0.0675757","-0.934351","0.936715","-0.0124868","-0.349871"
"9","333454379672521","6.99953","0.113907","-2.82585","0","0","0","0.00267086","-0.998435","0.0558518","-0.350048","-0.0532518","-0.935217","0.936728","-0.017053","-0.349643"
"9","333454396457189","6.34814","0.937714","-2.38521","0","0","0","0.00746661","-0.997896","0.0644106","-0.350597","-0.0629361","-0.934409","0.936496","-0.0156053","-0.35033"
"9","333454413241857","5.75424","1.53162","-2.15532","0","0","0","0.0130912","-0.997985","0.0620916","-0.350597","-0.062736","-0.934423","0.936435","-0.0095364","-0.350711"
"9","333454430026525","5.42854","1.85732","-2.23195","0","0","0","0.0133576","-0.999219","0.0371975","-0.350811","-0.0395193","-0.935612","0.936351","-0.000551753","-0.351065"
"9","333454446292394","5.52434","1.91479","-1.92542","0","0","0","0.011761","-0.999927","0.00265698","-0.351783","-0.00662489","-0.936058","0.936008","0.0100743","-0.351835"
"9","333454463595861","5.5818","1.85732","-1.50394","0","0","0","0.0282663","-0.999473","0.0159731","-0.35038","-0.0248723","-0.936277","0.936181","0.0208685","-0.350898"
"9","333454480380529","6.09909","1.70406","-1.27403","0","0","0","0.0454122","-0.998429","0.0328321","-0.346006","-0.0465523","-0.937077","0.937132","0.0311946","-0.347577"
"9","333454497165197","7.30606","1.45499","-1.59972","0","0","0","0.0526927","-0.998237","0.0273217","-0.340456","-0.0436784","-0.939245","0.938783","0.0401895","-0.342158"
"9","333454513949865","9.04945","1.32088","-1.67636","0","0","0","0.0553783","-0.99835","0.0151947","-0.334607","-0.0328944","-0.941783","0.940729","0.0470701","-0.335877"
"9","333454530765050","9.68169","1.97226","-1.86794","0","0","0","0.0434224","-0.998368","-0.0370834","-0.328125","0.0208076","-0.944405","0.943636","0.0531763","-0.326687"
"9","333454547519201","7.59343","2.22133","-3.4964","0","0","0","0.0515663","-0.997785","-0.0420225","-0.322112","0.0232121","-0.946417","0.945296","0.0623392","-0.320202"
"9","333454564334386","6.19487","1.83815","-5.52718","0","0","0","0.0595523","-0.997005","-0.0493411","-0.329801","0.0270018","-0.943664","0.94217","0.0724701","-0.327206"
"9","333454581088537","9.01114","1.32088","-2.00204","0","0","0","0.0539847","-0.994968","-0.0844046","-0.347781","0.0605003","-0.935622","0.93602","0.0798635","-0.342765"
"9","333454597873205","13.954","1.07182","2.63426","0","0","0","0.0404977","-0.990116","-0.134274","-0.338701","0.112825","-0.934105","0.940022","0.0833079","-0.330784"
"9","333454614688390","15.1035","-1.20801","2.21278","0","0","0","0.0674536","-0.995939","-0.0596279","-0.295053","0.0371788","-0.954757","0.953097","0.0819952","-0.291347"
"9","333454631442540","15.6399","-4.2925","1.67635","0","0","0","0.0386935","-0.993101","-0.110698","-0.260839","0.0969015","-0.960507","0.964606","0.0660396","-0.25529"
"9","333454648227208","15.889","-4.42661","0.0287323","0","0","0","0.0444061","-0.998479","0.0326615","-0.223823","-0.0418062","-0.973733","0.973618","0.0359293","-0.225339"
"9","333454665011876","12.4596","1.05267","-5.12485","0","0","0","0.0117646","-0.99993","0.00145639","-0.208683","-0.00387967","-0.977976","0.977912","0.0112016","-0.208714"
"9","333454681796544","12.3064","4.32874","-6.69583","0","0","0","0.0357606","-0.995885","0.0832727","-0.218339","-0.0890988","-0.971797","0.975217","0.0165703","-0.220627"
"9","333454698611730","11.6741","5.17169","-6.58087","0","0","0","0.0584845","-0.995447","0.0752617","-0.236107","-0.0870447","-0.967821","0.969966","0.0388327","-0.240123"
"9","333454715365880","10.1798","3.38998","-6.33182","0","0","0","0.0640524","-0.997947","0.000248644","-0.257839","-0.0167899","-0.966042","0.964062","0.0618132","-0.258385"
"9","333454732150548","9.04945","0.918564","-5.54633","0","0","0","0.0851924","-0.99598","0.0276745","-0.272014","-0.0499694","-0.960995","0.958515","0.0743416","-0.275178"
"9","333454748935216","10.6013","-1.26549","-5.41222","0","0","0","0.0764795","-0.99707","-0.00162302","-0.288844","-0.0205975","-0.957154","0.954316","0.0736715","-0.289573"
"9","333454765689367","12.4213","-1.66782","-4.93326","0","0","0","0.075242","-0.996666","0.0315496","-0.296627","-0.0525781","-0.953545","0.952025","0.0623881","-0.299595"
"9","333454781985753","12.7853","-0.499161","-4.95242","0","0","0","0.0719878","-0.995596","0.0600542","-0.300155","-0.0790437","-0.95061","0.95117","0.0504067","-0.304523"
"9","333454799289220","11.7316","0.592865","-5.77623","0","0","0","0.0533831","-0.998393","0.0190316","-0.307875","-0.0345861","-0.950798","0.949928","0.0448972","-0.309226"
"9","333454816104406","10.2181","1.16762","-5.77623","0","0","0","0.0661007","-0.99634","0.0542","-0.314836","-0.0723697","-0.946383","0.946842","0.0454924","-0.318467"
"9","333454832858556","9.01114","0.937714","-5.48886","0","0","0","0.0678009","-0.996582","0.0471857","-0.325876","-0.0668214","-0.943048","0.942978","0.0485628","-0.329293"
"9","333454849643224","8.2065","0.55455","-4.81831","0","0","0","0.0607077","-0.997968","0.0193771","-0.337958","-0.038817","-0.94036","0.939201","0.0505385","-0.339628"
"9","333454866488927","7.65091","0.401291","-4.26273","0","0","0","0.0642098","-0.997575","0.0268452","-0.345707","-0.0474707","-0.937141","0.936143","0.0508931","-0.347917"
"9","333454883212560","7.5168","0.63118","-3.80293","0","0","0","0.0473867","-0.998702","-0.0186907","-0.354588","0.000674302","-0.935022","0.933821","0.0509351","-0.354096"
"9","333454900027746","7.34438","1.1293","-3.87956","0","0","0","0.0520093","-0.99859","-0.0106706","-0.35864","-0.00870454","-0.933435","0.932026","0.0523742","-0.358587"
"9","333454916781896","7.47849","1.53162","-3.57303","0","0","0","0.049215","-0.998375","-0.0287261","-0.364235","0.00884016","-0.931265","0.930006","0.0562952","-0.363208"
"9","333454933566564","7.24858","1.34004","-2.86417","0","0","0","0.0455517","-0.997564","-0.0528324","-0.367921","0.0324163","-0.929292","0.928741","0.061769","-0.365548"
"9","333454950381749","5.9075","0.362961","-2.44269","0","0","0","0.0309562","-0.994395","-0.101101","-0.37004","0.0825604","-0.92534","0.9285","0.0660563","-0.36541"
"9","333454967166417","5.04538","-0.556625","-1.84879","0","0","0","0.0381598","-0.995965","-0.0812241","-0.369602","0.0614513","-0.927156","0.928406","0.0654007","-0.365766"
"9","333454983920568","4.37483","-1.45708","-1.21655","0","0","0","0.0184866","-0.99313","-0.115551","-0.369624","0.100595","-0.92372","0.928997","0.0597868","-0.365225"
"9","333455000674718","4.60474","-2.24255","-0.833389","0","0","0","0.0145036","-0.995125","-0.0975475","-0.365858","0.0855111","-0.926734","0.930558","0.0491296","-0.362835"
"9","333455017489904","5.44771","-2.37666","-0.373596","0","0","0","0.0194973","-0.998792","-0.0451097","-0.358826","0.0351221","-0.932744","0.933201","0.0343725","-0.357708"
"9","333455034244054","7.01868","-1.7636","-0.546021","0","0","0","0.019049","-0.99981","-0.00408788","-0.348683","-0.00281127","-0.937237","0.937047","0.0192788","-0.34867"
"9","333455051059240","8.81956","-1.38043","-0.775909","0","0","0","0.00188591","-0.999843","-0.017629","-0.337182","0.0159609","-0.941304","0.941438","0.00771942","-0.337099"
"9","333455067874425","9.73917","-1.22717","-1.02498","0","0","0","0.0206448","-0.997725","0.064178","-0.323316","-0.0674049","-0.943887","0.946066","-0.00126342","-0.323972"
"9","333455084628576","9.54758","-1.16969","-2.05952","0","0","0","0.00855758","-0.998474","0.0545555","-0.311643","-0.0545033","-0.948635","0.950161","-0.00888385","-0.311634"
"9","333455101382726","9.16441","-1.03558","-3.93703","0","0","0","0.00690244","-0.99738","0.0720045","-0.308169","-0.0706233","-0.948707","0.951307","-0.0156412","-0.307849"
